time_ms,ax,ay,az,gx,gy,gz,acc_mag,gyro_mag,label
11283,0.1318,0.0009,0.4030,3.77,-1.57,-1.16,0.4240,4.2473,idle
11303,0.1213,0.0045,0.4056,3.21,-1.24,-0.90,0.4234,3.5524,idle
11323,0.1163,0.0032,0.4098,2.73,-2.31,-0.03,0.4260,3.5755,idle
11343,0.1255,-0.0004,0.4052,2.40,-1.92,-0.15,0.4241,3.0772,idle
11363,0.1250,-0.0018,0.4056,2.76,-0.92,-0.43,0.4245,2.9424,idle
11383,0.1199,0.0037,0.4073,2.72,-1.59,0.29,0.4246,3.1607,idle
11403,0.1244,0.0035,0.4086,2.35,-2.73,0.96,0.4271,3.7311,idle
11423,0.1255,0.0020,0.4032,2.24,-3.56,0.93,0.4223,4.3079,idle
11443,0.1317,0.0031,0.4034,1.42,-3.80,0.76,0.4244,4.1292,idle
11463,0.1332,0.0024,0.4071,1.50,-3.02,0.47,0.4283,3.4059,idle
11483,0.1295,-0.0040,0.4089,1.94,-2.93,0.15,0.4290,3.5179,idle
11503,0.1313,0.0017,0.4121,2.38,-3.10,-0.64,0.4325,3.9609,idle
11523,0.1287,0.0015,0.4093,2.47,-2.35,-0.89,0.4291,3.5255,idle
11543,0.1268,0.0088,0.4025,2.55,-2.27,-0.85,0.4221,3.5223,idle
11563,0.1304,0.0055,0.4089,2.34,-1.39,-0.29,0.4292,2.7333,idle
11583,0.1252,0.0032,0.4103,2.02,-1.42,0.17,0.4290,2.4709,idle
11603,0.1208,-0.0005,0.4077,2.02,-2.27,-0.14,0.4252,3.0422,idle
11623,0.1257,0.0022,0.4109,1.66,-3.48,0.20,0.4297,3.8633,idle
11643,0.1339,0.0048,0.4070,0.92,-3.59,0.38,0.4285,3.7225,idle
11663,0.1310,0.0051,0.4016,0.52,-1.77,0.43,0.4225,1.8944,idle
11683,0.1204,0.0057,0.4069,-0.31,-1.39,1.28,0.4243,1.9152,idle
11703,0.1235,0.0050,0.4093,-0.60,-2.98,2.09,0.4276,3.6868,idle
11723,0.1283,0.0022,0.4055,-1.05,-3.76,2.11,0.4253,4.4333,idle
11743,0.1305,0.0020,0.4127,-0.95,-4.00,2.47,0.4329,4.7972,idle
11763,0.1337,0.0013,0.4128,-0.23,-4.40,2.26,0.4339,4.9488,idle
11783,0.1378,0.0016,0.4106,0.32,-3.19,0.90,0.4332,3.3310,idle
11803,0.1345,-0.0004,0.4116,1.11,-2.29,0.17,0.4330,2.5524,idle
11823,0.1344,0.0029,0.4033,1.68,-1.94,0.02,0.4251,2.5652,idle
11843,0.1290,0.0045,0.4027,1.42,-1.98,-0.27,0.4229,2.4557,idle
11863,0.1327,0.0026,0.4087,1.44,-1.47,-0.24,0.4297,2.0658,idle
11883,0.1284,-0.0007,0.4095,1.73,-0.85,-1.30,0.4292,2.3219,idle
11903,0.1251,0.0063,0.4117,1.45,-1.45,-1.28,0.4304,2.4191,idle
11923,0.1298,-0.0022,0.4126,1.79,-2.58,-1.15,0.4325,3.3405,idle
11943,0.1268,0.0023,0.4087,2.38,-2.53,-1.07,0.4279,3.6383,idle
11963,0.1292,0.0116,0.4059,2.03,-1.73,-0.52,0.4261,2.7146,idle
11983,0.1230,0.0040,0.4041,1.04,-2.02,0.79,0.4224,2.4019,idle
12003,0.1252,0.0048,0.4098,0.47,-2.15,1.21,0.4285,2.5125,idle
12023,0.1294,0.0039,0.4105,0.14,-3.28,1.28,0.4304,3.5268,idle
12043,0.1324,0.0004,0.4131,0.15,-4.08,1.48,0.4338,4.3397,idle
12063,0.1354,-0.0004,0.4109,0.99,-3.85,1.18,0.4326,4.1435,idle
12083,0.1356,-0.0024,0.4052,1.24,-2.98,0.23,0.4273,3.2318,idle
12103,0.1357,0.0054,0.4071,1.80,-2.06,-0.27,0.4292,2.7512,idle
12123,0.1293,0.0062,0.4098,1.40,-1.40,0.44,0.4297,2.0351,idle
12143,0.1328,0.0035,0.4026,1.21,-0.90,0.60,0.4239,1.6188,idle
12163,0.1204,0.0042,0.4038,1.74,-1.15,0.26,0.4214,2.0994,idle
12183,0.1227,0.0056,0.4050,1.34,-2.56,0.66,0.4232,2.9689,idle
12203,0.1310,0.0034,0.4001,1.56,-2.92,0.92,0.4211,3.4304,idle
12223,0.1344,0.0016,0.4054,1.16,-1.22,0.27,0.4271,1.7069,idle
12243,0.1259,0.0052,0.4080,0.98,-0.37,0.67,0.4270,1.2411,idle
12263,0.1263,0.0001,0.4103,1.05,-1.95,1.24,0.4293,2.5412,idle
12283,0.1316,0.0031,0.4088,1.24,-2.24,0.73,0.4295,2.6652,idle
12303,0.1327,0.0032,0.4075,1.02,-2.32,0.32,0.4285,2.5562,idle
12323,0.1382,0.0028,0.4025,0.87,-1.22,0.40,0.4255,1.5513,idle
12343,0.1301,-0.0006,0.4098,0.61,-0.63,0.20,0.4300,0.8967,idle
12363,0.1287,-0.0002,0.4083,1.01,-1.08,0.09,0.4281,1.4828,idle
12383,0.1307,0.0043,0.4091,1.05,-2.00,0.14,0.4295,2.2646,idle
12403,0.1346,0.0018,0.4150,0.99,-2.03,-0.15,0.4363,2.2652,idle
12423,0.1324,0.0000,0.4067,1.30,-1.82,-0.49,0.4278,2.2855,idle
12443,0.1329,0.0029,0.4136,1.08,-2.49,-0.63,0.4344,2.7856,idle
12463,0.1334,0.0040,0.4065,0.78,-2.56,-0.17,0.4278,2.6857,idle
12483,0.1290,0.0017,0.4133,1.01,-1.97,-0.46,0.4330,2.2592,idle
12503,0.1310,0.0009,0.4126,1.47,-2.58,-1.39,0.4329,3.2765,idle
12523,0.1290,0.0048,0.4042,1.94,-2.55,-1.89,0.4243,3.7207,idle
12543,0.1349,0.0007,0.4071,1.71,-1.89,-1.85,0.4289,3.1497,idle
12563,0.1271,0.0026,0.4094,1.68,-1.24,-1.16,0.4287,2.3866,idle
12583,0.1262,0.0039,0.4076,1.57,-1.69,-0.75,0.4267,2.4299,idle
12603,0.1259,0.0045,0.4056,2.00,-2.55,-0.79,0.4247,3.3363,idle
12623,0.1313,0.0063,0.3971,1.74,-2.26,-0.96,0.4183,3.0100,idle
12643,0.1349,0.0051,0.4031,1.68,-1.21,-0.76,0.4251,2.2040,idle
12663,0.1283,0.0089,0.4044,1.25,0.09,-0.78,0.4244,1.4771,idle
12683,0.1232,0.0049,0.4082,0.96,-1.39,-0.31,0.4264,1.7171,idle
12703,0.1311,0.0048,0.4036,1.01,-1.82,-0.15,0.4244,2.0831,idle
12723,0.1324,0.0088,0.4016,0.61,0.34,-0.46,0.4230,0.8340,idle
12743,0.1235,0.0062,0.4054,-0.08,0.58,0.35,0.4238,0.6824,idle
12763,0.1254,0.0056,0.4141,0.05,-1.01,0.73,0.4327,1.2468,idle
12783,0.1313,0.0038,0.4059,0.49,-1.48,-0.15,0.4266,1.5669,idle
12803,0.1364,0.0110,0.4072,0.69,0.17,-0.78,0.4296,1.0519,idle
12823,0.1331,0.0066,0.4103,1.36,1.73,-0.93,0.4314,2.3853,idle
12843,0.1254,0.0083,0.4077,1.18,1.59,-0.96,0.4266,2.1973,idle
12863,0.1262,0.0068,0.4092,1.04,0.43,-0.76,0.4283,1.3577,idle
12883,0.1265,0.0050,0.4115,1.31,0.44,0.21,0.4305,1.4020,idle
12903,0.1265,0.0079,0.4115,0.72,-0.06,0.72,0.4306,1.0166,idle
12923,0.1235,0.0042,0.4152,0.66,-1.80,0.58,0.4332,2.0033,idle
12943,0.1318,0.0052,0.4094,0.79,-3.36,0.67,0.4302,3.5161,idle
12963,0.1406,0.0046,0.4104,0.87,-2.50,0.35,0.4338,2.6739,idle
12983,0.1368,0.0040,0.4114,0.50,-1.24,0.02,0.4336,1.3354,idle
13003,0.1278,0.0035,0.4138,0.84,-1.89,-0.34,0.4331,2.0981,idle
13023,0.1316,0.0009,0.4121,1.18,-2.46,-1.16,0.4326,2.9614,idle
13043,0.1270,0.0034,0.4127,1.80,-2.69,-1.25,0.4318,3.4688,idle
13063,0.1210,0.0095,0.4089,2.05,-2.56,-0.43,0.4266,3.3086,idle
13083,0.1224,0.0061,0.4082,1.36,-2.61,-1.11,0.4262,3.1471,idle
13103,0.1226,0.0055,0.4059,1.74,-2.21,-1.19,0.4240,3.0574,idle
13123,0.1183,0.0084,0.4064,1.60,-2.41,-0.38,0.4233,2.9213,idle
13143,0.1235,0.0073,0.4062,1.05,-2.81,0.64,0.4247,3.0679,idle
13163,0.1271,0.0071,0.4041,1.07,-2.46,0.70,0.4236,2.7708,idle
13183,0.1274,0.0098,0.4103,0.50,-2.12,0.76,0.4297,2.3108,idle
13203,0.1317,0.0063,0.4084,0.53,-2.81,0.56,0.4292,2.9148,idle
13223,0.1290,0.0076,0.4137,1.02,-3.76,-0.12,0.4334,3.8944,idle
13243,0.1340,0.0012,0.4066,1.16,-3.40,-0.61,0.4281,3.6483,idle
13263,0.1283,0.0042,0.4095,1.63,-1.97,-0.52,0.4292,2.6109,idle
13283,0.1268,0.0081,0.4062,1.66,-1.68,-0.03,0.4257,2.3644,idle
13303,0.1292,0.0039,0.4082,1.71,-1.86,-0.35,0.4282,2.5527,idle
13323,0.1334,0.0095,0.4026,1.39,-1.60,-1.13,0.4242,2.4034,idle
13343,0.1327,0.0078,0.4060,0.60,-1.98,-1.07,0.4272,2.3315,idle
13363,0.1304,0.0078,0.4019,0.53,-1.74,-0.64,0.4225,1.9303,idle
13383,0.1285,0.0072,0.4056,0.70,-1.91,-0.90,0.4256,2.2241,idle
13403,0.1306,0.0070,0.4062,0.56,-2.08,-0.55,0.4268,2.2209,idle
13423,0.1311,0.0029,0.4110,0.37,-1.80,-0.61,0.4314,1.9372,idle
13443,0.1320,0.0048,0.4067,1.16,-1.73,-1.04,0.4276,2.3239,idle
13463,0.1251,0.0061,0.4113,1.40,-1.97,-0.98,0.4299,2.6089,idle
13483,0.1287,0.0074,0.4133,1.25,-3.19,-0.14,0.4330,3.4304,idle
13503,0.1334,0.0032,0.4097,1.77,-2.49,-0.06,0.4309,3.0550,idle
13523,0.1312,0.0060,0.4093,1.76,-1.45,-0.37,0.4299,2.3066,idle
13543,0.1254,0.0081,0.4067,1.76,-1.66,-0.50,0.4257,2.4710,idle
13563,0.1272,0.0087,0.4034,1.65,-1.69,-0.61,0.4231,2.4420,idle
13583,0.1260,0.0100,0.4071,1.57,-2.34,-0.06,0.4263,2.8165,idle
13603,0.1252,0.0077,0.4106,0.76,-2.06,-0.12,0.4294,2.2013,idle
13623,0.1259,0.0045,0.4080,0.85,-3.21,0.18,0.4270,3.3232,idle
13643,0.1345,0.0092,0.4038,1.24,-2.31,0.11,0.4257,2.6183,idle
13663,0.1298,0.0104,0.4073,0.66,-1.83,0.03,0.4276,1.9464,idle
13683,0.1278,0.0071,0.4073,0.58,-2.02,0.38,0.4270,2.1316,idle
13703,0.1331,0.0059,0.4056,0.50,-2.15,0.47,0.4269,2.2609,idle
13723,0.1332,0.0082,0.4077,0.53,-1.50,0.02,0.4290,1.5888,idle
13743,0.1284,0.0072,0.4053,0.61,-1.66,-0.32,0.4252,1.8014,idle
13763,0.1320,0.0116,0.4075,0.58,-1.30,-0.78,0.4285,1.6208,idle
13783,0.1295,0.0114,0.4072,0.49,-1.24,-1.22,0.4275,1.8055,idle
13803,0.1271,0.0109,0.4069,0.23,-1.59,-0.60,0.4264,1.7112,idle
13823,0.1313,0.0096,0.4088,0.26,-1.34,-0.29,0.4295,1.3988,idle
13843,0.1248,0.0093,0.4081,0.17,-1.37,0.11,0.4268,1.3884,idle
13863,0.1276,0.0083,0.4119,0.05,-1.62,0.20,0.4312,1.6311,idle
13883,0.1249,0.0062,0.4175,0.35,-1.91,-0.31,0.4358,1.9643,idle
13903,0.1266,0.0078,0.4183,0.73,-2.40,0.49,0.4371,2.5536,idle
13923,0.1298,0.0049,0.4119,1.21,-2.27,0.64,0.4319,2.6534,idle
13943,0.1322,0.0049,0.4116,1.31,-1.56,0.40,0.4324,2.0752,idle
13963,0.1281,0.0084,0.4086,1.31,-1.48,0.34,0.4282,2.0074,idle
13983,0.1274,0.0079,0.4098,1.11,-3.16,-0.20,0.4292,3.3569,idle
14003,0.1340,0.0056,0.4071,1.05,-3.50,-0.58,0.4286,3.6972,idle
14023,0.1321,0.0034,0.4052,1.07,-2.98,-0.81,0.4262,3.2650,idle
14043,0.1298,0.0059,0.4089,1.15,-2.70,-0.73,0.4291,3.0250,idle
14063,0.1326,0.0077,0.4071,0.87,-2.85,-0.64,0.4282,3.0527,idle
14083,0.1329,0.0051,0.4077,0.79,-1.97,-0.92,0.4289,2.3126,idle
14103,0.1277,0.0060,0.4053,1.01,-1.86,-1.10,0.4250,2.3860,idle
14123,0.1273,0.0068,0.4044,1.01,-1.86,-1.34,0.4240,2.5079,idle
14143,0.1230,0.0067,0.4064,1.16,-3.39,-1.04,0.4246,3.7298,idle
14163,0.1318,0.0094,0.4070,1.18,-3.16,-0.89,0.4279,3.4862,idle
14183,0.1321,0.0110,0.4039,1.10,-1.68,-0.38,0.4251,2.0431,idle
14203,0.1239,0.0089,0.4042,0.81,-0.34,-0.55,0.4228,1.0342,idle
14223,0.1267,0.0077,0.4076,0.85,-1.37,-0.23,0.4269,1.6344,idle
14243,0.1307,0.0076,0.4078,0.89,-2.05,-0.56,0.4283,2.2997,idle
14263,0.1365,0.0088,0.4065,0.34,-1.95,-0.41,0.4289,2.0252,idle
14283,0.1338,0.0088,0.4105,1.07,-0.99,-0.29,0.4319,1.4870,idle
14303,0.1322,0.0062,0.4133,1.25,-0.87,-0.37,0.4340,1.5681,idle
14323,0.1240,0.0063,0.4093,1.33,-2.38,-0.24,0.4277,2.7379,idle
14343,0.1342,0.0088,0.4086,1.50,-2.50,-0.31,0.4301,2.9327,idle
14363,0.1342,0.0082,0.4070,1.83,-1.83,0.17,0.4286,2.5964,idle
14383,0.1309,0.0101,0.4049,1.63,-0.76,-0.08,0.4256,1.8048,idle
14403,0.1249,0.0098,0.4038,1.47,-0.99,-0.26,0.4228,1.7889,idle
14423,0.1257,0.0127,0.4109,1.02,-2.56,-0.15,0.4299,2.7656,idle
14443,0.1307,0.0116,0.4019,0.60,-2.76,0.34,0.4227,2.8467,idle
14463,0.1300,0.0062,0.4049,0.31,-2.43,0.06,0.4253,2.4474,idle
14483,0.1333,0.0083,0.4060,0.63,-1.85,0.34,0.4274,1.9792,idle
14503,0.1306,0.0122,0.4109,0.81,-1.31,1.27,0.4313,1.9961,idle
14523,0.1293,0.0087,0.4100,0.90,-2.20,0.26,0.4300,2.3900,idle
14543,0.1306,0.0049,0.4082,1.36,-1.91,0.40,0.4286,2.3761,idle
14563,0.1279,0.0045,0.4084,1.25,-2.35,-0.03,0.4280,2.6638,idle
14583,0.1285,0.0057,0.4061,1.56,-2.09,0.11,0.4260,2.6098,idle
14603,0.1296,0.0092,0.4089,1.80,-1.54,0.17,0.4291,2.3773,idle
14623,0.1315,0.0089,0.4092,1.60,-1.79,0.31,0.4299,2.4195,forward
14643,0.1295,0.0104,0.4069,1.36,-2.18,0.27,0.4271,2.5862,forward
14663,0.1361,0.0087,0.4078,0.84,-2.00,0.03,0.4300,2.1693,forward
14683,0.1324,0.0066,0.4038,0.67,-1.56,-0.43,0.4250,1.7490,forward
14703,0.1295,0.0092,0.4038,0.63,-1.04,-0.15,0.4242,1.2219,forward
14723,0.1318,0.0082,0.4053,0.32,-1.57,-0.56,0.4263,1.7014,forward
14743,0.1304,0.0099,0.4069,0.44,-1.16,-0.73,0.4274,1.4420,forward
14763,0.1245,0.0109,0.4060,0.24,-1.11,-0.53,0.4248,1.2599,forward
14783,0.1302,0.0121,0.4049,0.20,-1.60,-0.60,0.4255,1.7215,forward
14803,0.1281,0.0087,0.4124,0.41,-1.71,-0.52,0.4319,1.8339,forward
14823,0.1333,0.0085,0.4115,0.72,-1.94,-0.47,0.4326,2.1209,forward
14843,0.1334,0.0116,0.3999,0.96,-0.24,-0.79,0.4217,1.2708,forward
14863,0.1282,0.0094,0.4043,0.69,0.49,-1.19,0.4242,1.4590,forward
14883,0.1285,0.0074,0.4014,0.47,0.24,-1.22,0.4215,1.3324,forward
14903,0.1327,0.0096,0.4049,0.52,0.08,-0.69,0.4262,0.8645,forward
14923,0.1392,0.0107,0.4017,0.40,1.73,-2.05,0.4253,2.7054,forward
14943,0.1409,0.0145,0.3993,-0.17,5.33,-1.36,0.4237,5.5013,forward
14963,0.1377,0.0156,0.4025,-0.41,9.19,-1.53,0.4257,9.3259,forward
14983,0.1449,0.0181,0.4012,-1.04,13.69,-1.18,0.4270,13.7842,forward
15003,0.1298,0.0195,0.4166,-0.41,15.24,-1.42,0.4368,15.3082,forward
15023,0.1260,0.0183,0.4268,0.26,13.83,-1.27,0.4453,13.8924,forward
15043,0.1223,0.0155,0.4489,2.69,13.11,-1.63,0.4655,13.4862,forward
15063,0.1012,0.0104,0.4824,6.73,5.33,-1.34,0.4930,8.6906,forward
15083,0.1005,0.0165,0.4867,11.56,-6.85,-1.24,0.4972,13.4941,forward
15103,0.1298,0.0165,0.4850,16.21,-12.37,-1.91,0.5023,20.4806,forward
15123,0.1698,0.0024,0.5021,21.80,-6.89,-3.16,0.5300,23.0804,forward
15143,0.1746,-0.0033,0.5223,31.11,1.89,-3.51,0.5507,31.3692,forward
15163,0.1461,-0.0015,0.5403,40.21,6.47,-4.53,0.5597,40.9830,forward
15183,0.1208,0.0070,0.5441,49.21,3.15,-5.22,0.5574,49.5822,forward
15203,0.1259,0.0033,0.5389,60.02,-1.73,-6.53,0.5535,60.3946,forward
15223,0.1234,0.0076,0.5448,71.50,-4.32,-9.02,0.5587,72.1927,forward
15243,0.1093,0.0194,0.5474,82.95,-12.52,-10.12,0.5585,84.4945,forward
15263,0.1045,0.0259,0.5488,96.05,-23.53,-10.98,0.5593,99.4927,forward
15283,0.1101,0.0354,0.5206,108.72,-33.30,-14.00,0.5333,114.5611,forward
15303,0.1249,0.0525,0.4805,119.53,-37.85,-18.47,0.4992,126.7293,forward
15323,0.1262,0.0706,0.4642,128.11,-37.95,-20.32,0.4862,135.1474,forward
15343,0.1051,0.0830,0.4570,136.26,-43.91,-20.61,0.4763,144.6354,forward
15363,0.0978,0.0929,0.4231,145.37,-54.12,-23.04,0.4441,156.8234,forward
15383,0.1130,0.1096,0.3739,152.41,-62.52,-28.29,0.4057,167.1480,forward
15403,0.1289,0.1361,0.3442,157.01,-64.73,-32.26,0.3920,172.8653,forward
15423,0.1333,0.1605,0.3002,159.94,-64.05,-34.92,0.3656,175.7881,forward
15443,0.1345,0.1918,0.2477,159.45,-60.82,-36.00,0.3409,174.4134,forward
15463,0.1366,0.2180,0.2275,157.76,-54.21,-34.14,0.3435,170.2685,forward
15483,0.1227,0.2426,0.1912,154.40,-50.70,-30.08,0.3323,165.2686,forward
15503,0.1179,0.2638,0.1738,149.68,-48.78,-28.46,0.3372,159.9785,forward
15523,0.1218,0.2828,0.1348,146.21,-50.49,-27.27,0.3362,157.0702,forward
15543,0.1414,0.3057,0.0962,139.36,-45.68,-27.86,0.3502,149.2776,forward
15563,0.1295,0.3274,0.0902,131.86,-41.56,-28.53,0.3635,141.1700,forward
15583,0.0925,0.3442,0.0630,124.38,-47.97,-26.81,0.3620,135.9801,forward
15603,0.1051,0.3597,0.0432,115.79,-55.40,-26.34,0.3773,131.0332,forward
15623,0.1350,0.3759,0.0173,107.77,-61.04,-29.73,0.3997,127.3728,forward
15643,0.1616,0.3948,0.0153,99.28,-58.24,-31.88,0.4269,119.4387,forward
15663,0.1548,0.4108,-0.0153,91.28,-52.38,-30.26,0.4392,109.5078,forward
15683,0.1558,0.4224,-0.0332,81.53,-42.60,-27.76,0.4514,96.0799,forward
15703,0.1703,0.4375,-0.0571,72.03,-29.71,-26.55,0.4729,82.3162,forward
15723,0.1995,0.4674,-0.0914,61.28,-7.45,-23.02,0.5163,65.8870,forward
15743,0.1943,0.4821,-0.0995,48.44,19.88,-16.95,0.5292,55.0365,forward
15763,0.1592,0.4850,-0.1000,35.77,40.58,-8.95,0.5201,54.8302,forward
15783,0.1243,0.4924,-0.0999,22.75,53.37,-0.87,0.5176,58.0260,forward
15803,0.0762,0.4874,-0.0475,9.91,54.55,6.34,0.4956,55.8031,forward
15823,0.0511,0.4924,-0.0516,-1.85,27.62,8.44,0.4978,28.9390,forward
15843,0.0975,0.4888,-0.0662,-12.61,5.13,7.51,0.5028,15.5488,forward
15863,0.1355,0.4865,-0.0811,-23.91,-0.70,8.50,0.5114,25.3854,forward
15883,0.1338,0.4895,-0.0840,-35.88,-0.73,13.22,0.5144,38.2435,forward
15903,0.1376,0.4827,-0.0739,-48.43,0.46,18.84,0.5073,51.9650,forward
15923,0.1633,0.4823,-0.0942,-62.79,8.34,21.83,0.5179,67.0015,forward
15943,0.1682,0.4689,-0.0654,-79.56,21.25,24.40,0.5024,85.8849,forward
15963,0.1414,0.4429,-0.0122,-90.96,21.63,29.05,0.4650,97.9090,forward
15983,0.1364,0.4203,0.0022,-99.94,15.63,31.76,0.4419,106.0218,forward
16003,0.1625,0.4117,-0.0070,-110.78,17.60,32.75,0.4427,116.8512,forward
16023,0.1967,0.4055,-0.0425,-125.40,34.53,34.53,0.4527,134.5792,forward
16043,0.1921,0.3673,0.0020,-139.51,54.12,36.56,0.4145,154.0443,forward
16063,0.1681,0.3171,0.0557,-149.11,59.40,37.27,0.3632,164.7813,forward
16083,0.1127,0.3348,0.0453,-165.21,55.73,38.31,0.3562,178.5095,forward
16103,0.1364,0.3027,0.0563,-177.36,58.08,46.24,0.3368,192.2694,forward
16123,0.1500,0.2588,0.0894,-190.55,62.85,45.27,0.3122,205.6916,forward
16143,0.1317,0.1921,0.1843,-197.48,57.80,44.37,0.2971,210.4949,forward
16163,0.1218,0.1365,0.2678,-196.02,33.13,40.40,0.3243,202.8583,forward
16183,0.1656,0.1078,0.2448,-194.15,22.63,35.47,0.3146,198.6580,forward
16203,0.2280,0.1062,0.1986,-197.97,47.30,31.63,0.3205,205.9846,forward
16223,0.2128,0.0516,0.2997,-200.03,77.63,27.79,0.3711,216.3591,forward
16243,0.1293,0.0033,0.3507,-196.75,80.27,24.63,0.3738,213.9165,forward
16263,0.0632,-0.0168,0.3928,-191.60,68.14,23.79,0.3982,204.7443,forward
16283,0.0536,-0.0583,0.5220,-180.52,40.69,22.61,0.5280,186.4238,forward
16303,0.0797,-0.0977,0.5214,-163.48,12.12,19.16,0.5364,165.0457,forward
16323,0.1271,-0.0902,0.4531,-150.29,9.68,11.63,0.4792,151.0501,forward
16343,0.1548,-0.0823,0.4712,-140.46,29.92,8.14,0.5027,143.8405,forward
16363,0.1290,-0.1268,0.5554,-129.30,34.09,6.31,0.5841,133.8652,forward
16383,0.0854,-0.1526,0.5411,-114.50,18.15,5.22,0.5687,116.0513,forward
16403,0.1014,-0.1478,0.5188,-99.85,13.10,4.49,0.5489,100.8029,forward
16423,0.1478,-0.1410,0.4921,-89.57,24.02,2.06,0.5328,92.7589,forward
16443,0.1250,-0.1696,0.5487,-79.54,36.47,2.26,0.5878,87.5348,forward
16463,0.0588,-0.1965,0.5635,-64.02,26.99,1.37,0.5997,69.4869,forward
16483,0.0096,-0.1946,0.5491,-49.47,8.72,0.61,0.5826,50.2317,forward
16503,0.0397,-0.1835,0.5331,-36.49,-8.78,0.81,0.5652,37.5384,forward
16523,0.0953,-0.1825,0.5095,-24.89,-7.74,-0.14,0.5496,26.0619,forward
16543,0.0999,-0.1765,0.4994,-14.17,-0.66,-2.43,0.5390,14.3894,forward
16563,0.0861,-0.1724,0.5122,-3.15,0.50,-1.51,0.5472,3.5256,forward
16583,0.0940,-0.1576,0.4980,6.37,-2.85,0.24,0.5308,6.9815,forward
16603,0.1046,-0.1422,0.4825,13.54,-7.36,-1.80,0.5138,15.5172,forward
16623,0.0940,-0.1389,0.4651,18.67,-9.60,-4.55,0.4944,21.4838,forward
16643,0.0948,-0.1305,0.4525,23.08,-13.57,-5.66,0.4804,27.3709,forward
16663,0.1133,-0.1129,0.4363,26.06,-14.17,-5.34,0.4647,30.1407,forward
16683,0.1067,-0.1060,0.4242,27.16,-13.36,-5.98,0.4501,30.8538,forward
16703,0.1016,-0.0994,0.4221,27.27,-16.23,-6.56,0.4454,32.4034,forward
16723,0.1191,-0.0961,0.4111,26.63,-17.40,-5.59,0.4387,32.2968,forward
16743,0.1357,-0.0884,0.3951,25.85,-12.31,-4.90,0.4271,29.0435,forward
16763,0.1222,-0.0801,0.3988,24.44,-8.24,-4.21,0.4247,26.1376,forward
16783,0.1140,-0.0775,0.3932,23.04,-8.99,-2.78,0.4167,24.8866,forward
16803,0.1135,-0.0781,0.3998,21.71,-10.02,-1.82,0.4229,23.9776,forward
16823,0.1207,-0.0754,0.3966,19.83,-12.00,-2.53,0.4214,23.3181,forward
16843,0.1287,-0.0769,0.3939,19.36,-10.61,-3.79,0.4215,22.3983,forward
16863,0.1237,-0.0675,0.3851,18.70,-8.32,-3.04,0.4101,20.6939,forward
16883,0.1222,-0.0625,0.3892,16.81,-6.03,-1.71,0.4127,17.9399,forward
16903,0.1221,-0.0625,0.3901,14.96,-5.11,-0.89,0.4135,15.8366,forward
16923,0.1194,-0.0627,0.3922,14.00,-4.38,-0.26,0.4148,14.6720,forward
16943,0.1162,-0.0577,0.3889,12.15,-4.63,0.38,0.4100,13.0089,forward
16963,0.1118,-0.0615,0.3932,10.41,-4.61,0.53,0.4134,11.3999,forward
16983,0.1219,-0.0631,0.3910,9.13,-4.61,0.84,0.4144,10.2624,left
17003,0.1223,-0.0634,0.3904,7.97,-2.82,1.28,0.4140,8.5519,left
17023,0.1174,-0.0618,0.3972,6.66,-2.15,2.63,0.4188,7.4725,left
17043,0.1172,-0.0620,0.4001,6.09,-4.11,3.08,0.4215,7.9677,left
17063,0.1245,-0.0638,0.4052,5.63,-5.94,2.50,0.4286,8.5602,left
17083,0.1279,-0.0653,0.3955,5.66,-5.34,1.56,0.4208,7.9411,left
17103,0.1342,-0.0634,0.4012,6.02,-3.91,1.13,0.4278,7.2619,left
17123,0.1307,-0.0613,0.4037,6.63,-1.19,1.54,0.4287,6.9065,left
17143,0.1260,-0.0596,0.4023,6.53,-0.98,2.06,0.4258,6.9210,left
17163,0.1216,-0.0546,0.4036,6.44,-1.15,1.57,0.4250,6.7300,left
17183,0.1221,-0.0522,0.4031,6.17,-1.13,0.93,0.4244,6.3393,left
17203,0.1249,-0.0538,0.4017,6.21,-1.22,1.56,0.4241,6.5213,left
17223,0.1195,-0.0494,0.4050,5.65,-1.16,2.17,0.4252,6.1608,left
17243,0.1187,-0.0538,0.4044,5.76,-1.66,1.95,0.4249,6.3021,left
17263,0.1252,-0.0525,0.4076,5.69,-1.54,2.11,0.4296,6.2646,left
17283,0.1243,-0.0531,0.4021,5.05,-0.47,1.80,0.4242,5.3858,left
17303,0.1174,-0.0579,0.4071,5.13,-0.93,1.71,0.4276,5.4869,left
17323,0.1199,-0.0551,0.4043,5.44,-3.10,0.96,0.4253,6.3302,left
17343,0.1277,-0.0544,0.4017,5.47,-3.34,0.98,0.4250,6.4813,left
17363,0.1340,-0.0548,0.4023,5.16,-0.98,0.75,0.4276,5.3050,left
17383,0.1298,-0.0565,0.4106,5.19,0.27,0.34,0.4344,5.2089,left
17403,0.1240,-0.0509,0.4055,5.48,-1.48,0.03,0.4271,5.6775,left
17423,0.1311,-0.0491,0.4019,4.98,-2.18,-0.21,0.4255,5.4391,left
17443,0.1334,-0.0446,0.4014,4.27,-1.07,-1.13,0.4253,4.5489,left
17463,0.1263,-0.0450,0.4081,3.42,-0.12,-1.18,0.4296,3.6183,left
17483,0.1255,-0.0479,0.4109,3.68,-1.22,-2.12,0.4323,4.4196,left
17503,0.1223,-0.0404,0.4066,3.36,-1.48,-2.60,0.4265,4.4956,left
17523,0.1285,-0.0476,0.4127,2.84,-1.27,-2.78,0.4349,4.1702,left
17543,0.1298,-0.0402,0.4105,2.81,-1.28,-2.78,0.4324,4.1541,left
17563,0.1284,-0.0399,0.4108,2.81,-0.44,-2.93,0.4322,4.0841,left
17583,0.1233,-0.0386,0.4047,2.02,0.17,-3.05,0.4248,3.6624,left
17603,0.1257,-0.0458,0.4072,1.88,0.46,-3.10,0.4286,3.6526,left
17623,0.1299,-0.0472,0.4120,2.95,1.36,-3.53,0.4346,4.7923,left
17643,0.1233,-0.0402,0.4092,2.98,1.91,-3.27,0.4292,4.8145,left
17663,0.1228,-0.0343,0.4021,2.64,2.64,-4.03,0.4218,5.4952,left
17683,0.1229,-0.0386,0.4120,3.02,4.56,-3.40,0.4317,6.4473,left
17703,0.1111,-0.0358,0.4111,3.39,4.92,-2.99,0.4274,6.6790,left
17723,0.1086,-0.0306,0.4121,3.94,4.96,-2.11,0.4273,6.6764,left
17743,0.1033,-0.0300,0.4193,4.34,5.97,-0.82,0.4329,7.4239,left
17763,0.0841,-0.0315,0.4248,4.49,5.08,1.66,0.4342,6.9831,left
17783,0.0804,-0.0289,0.4257,5.33,2.31,4.41,0.4342,7.2919,left
17803,0.0854,-0.0300,0.4233,7.01,1.95,5.95,0.4329,9.4010,left
17823,0.0873,-0.0277,0.4227,8.38,7.42,9.86,0.4325,14.9190,left
17843,0.0726,-0.0292,0.4355,9.71,17.02,15.76,0.4425,25.1457,left
17863,0.0441,-0.0339,0.4500,12.20,22.43,22.20,0.4534,33.8314,left
17883,0.0148,-0.0355,0.4600,16.32,22.55,29.85,0.4616,40.8131,left
17903,-0.0009,-0.0325,0.4650,19.66,17.02,37.89,0.4661,45.9603,left
17923,0.0074,-0.0308,0.4674,24.32,14.11,45.92,0.4685,53.8468,left
17943,0.0095,-0.0273,0.4675,29.15,17.82,52.95,0.4684,63.0096,left
17963,0.0172,-0.0232,0.4596,33.62,26.81,61.83,0.4605,75.3135,left
17983,-0.0200,-0.0184,0.4662,37.10,36.89,73.45,0.4670,90.1768,left
18003,-0.0756,-0.0311,0.4799,39.80,29.44,87.98,0.4868,100.9549,left
18023,-0.0784,-0.0310,0.4690,42.27,9.51,98.37,0.4765,107.4876,left
18043,-0.0299,-0.0323,0.4503,46.47,-3.56,105.36,0.4525,115.2080,left
18063,0.0107,-0.0262,0.4276,49.66,-4.21,111.92,0.4286,122.5202,left
18083,0.0336,-0.0067,0.4098,49.45,-2.81,119.01,0.4112,128.9033,left
18103,0.0607,-0.0044,0.4012,48.46,-0.58,124.03,0.4058,133.1619,left
18123,0.0791,-0.0049,0.3910,46.37,3.65,127.19,0.3989,135.4277,left
18143,0.0833,0.0004,0.3735,42.29,3.33,128.52,0.3827,135.3391,left
18163,0.0975,0.0013,0.3667,38.55,-0.11,128.60,0.3795,134.2493,left
18183,0.1044,0.0117,0.3555,33.80,0.05,125.57,0.3707,130.0423,left
18203,0.1079,-0.0051,0.3774,30.46,-2.37,123.54,0.3926,127.2632,left
18223,0.1304,-0.0057,0.3733,27.01,-7.92,119.04,0.3954,122.3204,left
18243,0.1591,-0.0099,0.3676,24.81,-10.85,109.88,0.4006,113.1657,left
18263,0.1550,0.0042,0.3751,22.76,-10.82,100.79,0.4059,103.8978,left
18283,0.1482,0.0076,0.3772,20.03,-15.25,92.69,0.4053,96.0454,left
18303,0.1365,0.0178,0.3732,16.34,-20.70,85.79,0.3977,89.7481,left
18323,0.1400,0.0288,0.3639,14.05,-27.94,77.62,0.3910,83.6808,left
18343,0.1354,0.0314,0.3699,8.46,-35.44,72.17,0.3951,80.8418,left
18363,0.1646,0.0168,0.3878,6.24,-41.57,66.75,0.4216,78.8833,left
18383,0.2294,0.0101,0.3889,7.15,-38.75,56.41,0.4516,68.8099,left
18403,0.2527,0.0315,0.3690,5.33,-21.47,46.64,0.4483,51.6194,left
18423,0.2202,0.0328,0.3793,1.30,-9.40,37.97,0.4398,39.1384,left
18443,0.1877,0.0201,0.3888,-1.07,-13.94,29.66,0.4322,32.7932,left
18463,0.2135,0.0212,0.3894,-0.53,-20.21,18.12,0.4446,27.1531,left
18483,0.2234,0.0375,0.3937,-2.49,-17.08,9.85,0.4542,19.8752,left
18503,0.2273,0.0239,0.4044,-2.99,-12.64,1.47,0.4645,13.0730,left
18523,0.2261,0.0232,0.3993,-2.12,-7.80,-7.04,0.4594,10.7193,left
18543,0.1995,0.0309,0.3964,-2.40,-5.56,-15.77,0.4448,16.8924,left
18563,0.1859,0.0289,0.3933,-2.08,-8.67,-22.02,0.4360,23.7525,left
18583,0.1887,0.0295,0.3884,-2.09,-13.79,-28.79,0.4329,31.9926,left
18603,0.2126,0.0287,0.3885,-2.32,-13.56,-36.11,0.4439,38.6379,left
18623,0.2213,0.0186,0.3911,-2.66,-10.09,-44.21,0.4498,45.4285,left
18643,0.2122,0.0201,0.3937,-1.86,-7.15,-52.84,0.4477,53.3531,left
18663,0.2076,0.0282,0.3936,-2.27,-9.53,-60.56,0.4459,61.3518,left
18683,0.2023,0.0308,0.3832,-3.89,-13.42,-67.95,0.4344,69.3759,left
18703,0.2010,0.0216,0.4025,-5.47,-19.73,-76.90,0.4504,79.5782,left
18723,0.2070,0.0184,0.3872,-5.63,-27.88,-85.77,0.4395,90.3636,left
18743,0.2343,0.0358,0.3651,-7.83,-28.67,-94.14,0.4353,98.7181,left
18763,0.2488,0.0361,0.3574,-11.33,-19.59,-102.18,0.4370,104.6586,left
18783,0.2365,0.0449,0.3474,-15.54,-9.50,-107.24,0.4226,108.7724,left
18803,0.2296,0.0500,0.3561,-20.56,-2.49,-111.77,0.4266,113.6744,left
18823,0.1799,0.0391,0.3740,-23.71,-1.37,-114.02,0.4169,116.4626,left
18843,0.1526,0.0430,0.3834,-27.21,-13.27,-112.76,0.4149,116.7551,left
18863,0.1682,0.0460,0.3550,-30.43,-25.48,-116.21,0.3955,122.8037,left
18883,0.1880,0.0459,0.3541,-33.47,-25.79,-120.24,0.4035,127.4503,left
18903,0.1821,0.0431,0.3588,-38.92,-18.21,-120.15,0.4046,127.6043,left
18923,0.1633,0.0389,0.3689,-41.97,-12.73,-116.60,0.4053,124.5715,left
18943,0.1663,0.0302,0.3813,-44.06,-6.18,-113.94,0.4171,122.3180,left
18963,0.1146,0.0193,0.3955,-45.66,3.04,-109.13,0.4122,118.3374,left
18983,0.0979,0.0360,0.3926,-45.34,3.34,-104.15,0.4062,113.6441,left
19003,0.1235,0.0483,0.3792,-46.18,6.18,-100.46,0.4017,110.7381,left
19023,0.1226,0.0400,0.3782,-48.00,15.74,-97.51,0.3995,109.8191,left
19043,0.0693,0.0225,0.3898,-50.69,12.27,-91.19,0.3965,105.0505,left
19063,0.0519,0.0122,0.4008,-50.09,-0.95,-85.37,0.4043,98.9889,left
19083,0.0691,0.0165,0.3961,-50.95,-12.34,-82.21,0.4024,97.5030,left
19103,0.0842,0.0068,0.4083,-50.92,-7.76,-78.00,0.4170,93.4697,left
19123,0.0823,-0.0078,0.4259,-47.63,1.18,-73.69,0.4338,87.7567,left
19143,0.0634,-0.0093,0.4386,-43.57,5.22,-68.66,0.4432,81.4834,left
19163,0.0382,-0.0070,0.4513,-39.54,2.82,-60.90,0.4530,72.6667,left
19183,0.0427,-0.0129,0.4524,-35.82,-3.28,-53.15,0.4546,64.1717,left
19203,0.0487,-0.0148,0.4525,-31.33,-3.40,-46.17,0.4554,55.8975,left
19223,0.0555,-0.0184,0.4558,-26.05,2.32,-40.89,0.4596,48.5324,left
19243,0.0469,-0.0211,0.4722,-20.00,6.15,-34.92,0.4750,40.7061,left
19263,0.0283,-0.0193,0.4687,-14.95,2.99,-27.13,0.4700,31.1188,left
19283,0.0283,-0.0140,0.4637,-10.73,-6.70,-20.82,0.4648,24.3674,left
19303,0.0347,-0.0170,0.4656,-6.50,-15.98,-16.56,0.4672,23.9208,left
19323,0.0739,-0.0221,0.4561,-1.66,-21.04,-12.90,0.4625,24.7347,left
19343,0.1106,-0.0126,0.4375,2.21,-15.62,-9.16,0.4514,18.2413,left
19363,0.1125,-0.0046,0.4238,3.94,-3.98,-5.21,0.4385,7.6483,left
19383,0.1025,-0.0049,0.4286,4.92,2.20,0.03,0.4407,5.3853,left
19403,0.0918,-0.0045,0.4324,5.68,0.08,3.40,0.4420,6.6221,left
19423,0.0990,-0.0013,0.4315,6.67,-6.03,5.34,0.4427,10.4610,left
19443,0.1216,-0.0027,0.4227,7.33,-8.06,6.32,0.4399,12.5950,left
19463,0.1433,-0.0050,0.4155,8.23,-5.71,5.21,0.4396,11.2882,left
19483,0.1396,-0.0017,0.4115,8.46,-1.19,5.88,0.4346,10.3685,left
19503,0.1339,0.0048,0.4105,7.63,0.18,8.05,0.4318,11.0923,left
19523,0.1263,0.0007,0.4188,6.85,-1.88,8.03,0.4375,10.7241,left
19543,0.1250,-0.0034,0.4124,6.90,-5.40,7.66,0.4309,11.6434,left
19563,0.1357,-0.0093,0.4108,5.98,-7.05,7.05,0.4327,11.6327,right
19583,0.1448,-0.0090,0.4061,6.05,-4.69,6.85,0.4313,10.2718,right
19603,0.1361,-0.0056,0.4132,6.18,-2.67,6.63,0.4351,9.4485,right
19623,0.1326,-0.0060,0.4122,5.62,-2.87,6.90,0.4331,9.3501,right
19643,0.1343,-0.0011,0.4102,5.42,-5.45,6.60,0.4316,10.1282,right
19663,0.1420,-0.0029,0.4016,5.16,-5.83,5.60,0.4260,9.5935,right
19683,0.1429,-0.0005,0.3984,4.34,-5.27,4.58,0.4233,8.2171,right
19703,0.1400,0.0024,0.3966,2.93,-4.92,4.27,0.4206,7.1438,right
19723,0.1389,-0.0021,0.4048,3.42,-4.87,3.86,0.4280,7.0947,right
19743,0.1375,0.0017,0.4084,3.73,-4.60,3.42,0.4310,6.8330,right
19763,0.1300,0.0042,0.4030,3.48,-4.64,3.10,0.4234,6.5775,right
19783,0.1362,0.0057,0.3982,3.01,-6.24,2.92,0.4209,7.5193,right
19803,0.1425,0.0016,0.4027,2.87,-6.84,2.12,0.4272,7.7151,right
19823,0.1423,0.0051,0.4041,3.22,-7.36,2.20,0.4284,8.3284,right
19843,0.1395,0.0094,0.4058,3.47,-6.90,2.23,0.4292,8.0374,right
19863,0.1444,0.0092,0.3955,3.08,-5.31,2.47,0.4211,6.6224,right
19883,0.1447,0.0082,0.3945,2.18,-2.66,2.02,0.4203,3.9856,right
19903,0.1377,0.0104,0.3944,1.07,-3.25,2.00,0.4179,3.9645,right
19923,0.1339,0.0132,0.3989,0.49,-5.22,3.25,0.4210,6.1706,right
19943,0.1460,0.0106,0.3993,-0.67,-7.74,3.27,0.4253,8.4285,right
19963,0.1659,0.0017,0.4023,-0.95,-8.70,0.11,0.4352,8.7543,right
19983,0.1617,0.0068,0.3970,-1.16,-10.49,-2.08,0.4287,10.7549,right
20003,0.1876,0.0173,0.3853,-3.42,-10.72,-3.83,0.4289,11.8847,right
20023,0.2009,0.0099,0.3867,-5.91,-6.64,-7.79,0.4359,11.8170,right
20043,0.1965,0.0029,0.3845,-7.88,-5.88,-11.76,0.4318,15.3234,right
20063,0.2090,0.0029,0.3759,-10.38,-8.78,-15.92,0.4301,20.9382,right
20083,0.2393,0.0035,0.3759,-13.57,-12.03,-22.92,0.4456,29.2248,right
20103,0.2549,-0.0071,0.3875,-16.23,-13.01,-32.18,0.4638,38.3189,right
20123,0.2570,-0.0170,0.3899,-17.42,-17.39,-43.25,0.4673,49.7651,right
20143,0.2681,-0.0182,0.3857,-18.99,-21.92,-55.77,0.4701,62.8630,right
20163,0.3018,-0.0242,0.3695,-20.38,-17.59,-67.27,0.4777,72.4542,right
20183,0.3170,-0.0300,0.3525,-22.02,-0.46,-78.69,0.4751,81.7100,right
20203,0.2882,-0.0350,0.3682,-23.57,21.91,-86.92,0.4689,92.6825,right
20223,0.2253,-0.0447,0.3795,-24.75,37.71,-91.40,0.4436,101.9279,right
20243,0.1749,-0.0551,0.3971,-25.24,39.44,-92.18,0.4374,103.3913,right
20263,0.1379,-0.0651,0.4156,-24.00,37.69,-93.92,0.4427,104.0122,right
20283,0.0647,-0.0710,0.4379,-22.61,28.56,-94.79,0.4483,101.5533,right
20303,0.0454,-0.0701,0.4496,-17.89,7.39,-91.37,0.4573,93.4023,right
20323,0.0864,-0.0525,0.4264,-14.17,-4.43,-90.49,0.4382,91.6979,right
20343,0.1012,-0.0461,0.4204,-13.18,-2.21,-89.34,0.4349,90.3369,right
20363,0.1284,-0.0392,0.3998,-11.24,4.87,-87.74,0.4217,88.5910,right
20383,0.1216,-0.0227,0.3844,-11.11,16.08,-84.81,0.4038,87.0320,right
20403,0.0706,-0.0026,0.3950,-15.07,20.43,-78.26,0.4013,82.2734,right
20423,0.0422,-0.0243,0.4128,-16.50,11.05,-73.51,0.4157,76.1478,right
20443,0.0209,-0.0369,0.4240,-16.84,-5.73,-68.03,0.4261,70.3172,right
20463,0.0725,-0.0488,0.4105,-15.63,-14.89,-65.83,0.4197,69.2809,right
20483,0.1068,-0.0325,0.3861,-13.66,-10.03,-64.84,0.4019,67.0187,right
20503,0.1176,-0.0239,0.3890,-14.08,4.41,-62.99,0.4071,64.6966,right
20523,0.1119,-0.0364,0.4071,-13.62,16.49,-57.65,0.4238,61.4876,right
20543,0.0459,-0.0424,0.4141,-11.25,18.26,-53.04,0.4187,57.2107,right
20563,0.0568,-0.0525,0.4351,-10.21,8.49,-49.30,0.4419,51.0553,right
20583,-0.0824,-0.0396,0.4080,-8.44,39.10,-25.34,0.4181,47.3532,right
20603,-0.2582,-0.0228,0.4940,-7.80,28.44,-2.64,0.5579,29.6113,right
20623,-0.1371,-0.0146,0.4705,-2.58,-26.50,9.01,0.4902,28.1113,right
20643,0.0312,-0.0203,0.4399,3.27,-37.66,14.29,0.4415,40.4162,right
20663,0.1183,-0.0065,0.4236,3.68,-33.68,14.85,0.4398,36.9934,right
20683,0.1564,0.0007,0.4042,4.73,-22.85,14.11,0.4334,27.2718,right
20703,0.1829,-0.0117,0.4034,6.38,-7.21,7.89,0.4431,12.4481,right
20723,0.1537,-0.0092,0.4106,5.92,6.02,8.81,0.4386,12.2014,right
20743,0.1106,-0.0231,0.4292,5.24,8.15,10.32,0.4438,14.1564,right
20763,0.0725,-0.0380,0.4363,5.98,-1.97,11.62,0.4439,13.2167,right
20783,0.0587,-0.0361,0.4445,7.97,-15.71,15.31,0.4498,23.3410,right
20803,0.0771,-0.0369,0.4318,9.88,-13.79,23.31,0.4401,28.8293,right
20823,0.0991,-0.0408,0.4441,12.21,-7.10,28.82,0.4568,32.1002,right
20843,0.0873,-0.0332,0.4504,16.35,0.09,35.10,0.4600,38.7211,right
20863,0.0698,-0.0172,0.4395,18.27,3.88,40.55,0.4453,44.6461,right
20883,0.0673,-0.0192,0.4298,19.56,7.97,45.04,0.4355,49.7437,right
20903,0.0604,-0.0107,0.4293,21.24,10.34,49.15,0.4337,54.5258,right
20923,0.0514,-0.0132,0.4316,22.73,12.73,56.00,0.4349,61.7649,right
20943,0.0558,-0.0083,0.4146,23.13,15.83,63.33,0.4184,69.2539,right
20963,0.0449,-0.0129,0.4204,23.18,20.12,69.66,0.4230,76.1255,right
20983,0.0281,-0.0182,0.4220,22.85,18.06,76.76,0.4233,82.1046,right
21003,0.0322,-0.0150,0.4121,23.11,10.29,81.94,0.4136,85.7564,right
21023,0.0560,-0.0155,0.4153,23.63,6.24,85.28,0.4193,88.7166,right
21043,0.0603,-0.0281,0.4313,24.38,4.50,87.79,0.4364,91.2205,right
21063,0.0590,-0.0278,0.4165,26.14,1.02,90.23,0.4216,93.9440,right
21083,0.0804,-0.0098,0.4122,27.16,0.34,93.89,0.4201,97.7431,right
21103,0.0891,0.0004,0.4122,26.40,2.64,96.56,0.4218,100.1427,right
21123,0.0995,-0.0034,0.4166,25.76,5.63,98.60,0.4284,102.0595,right
21143,0.1160,-0.0057,0.4260,26.84,6.44,100.24,0.4416,103.9750,right
21163,0.1140,-0.0049,0.4139,28.15,5.86,97.02,0.4294,101.1948,right
21183,0.0999,0.0051,0.3993,28.21,3.36,95.34,0.4116,99.4871,right
21203,0.1218,0.0033,0.3922,26.63,3.89,94.75,0.4107,98.4952,right
21223,0.1415,-0.0049,0.4133,25.94,6.70,92.81,0.4369,96.5986,right
21243,0.1364,-0.0061,0.4163,26.29,3.63,89.56,0.4381,93.4070,right
21263,0.1371,0.0062,0.4021,25.48,-1.02,85.86,0.4249,89.5696,right
21283,0.1531,0.0115,0.3892,23.57,-3.27,80.96,0.4183,84.3869,right
21303,0.1702,0.0120,0.3865,20.92,-2.95,76.31,0.4224,79.1749,right
21323,0.1882,0.0121,0.3762,18.41,0.23,69.98,0.4209,72.3666,right
21343,0.1720,0.0182,0.3767,15.73,2.47,63.98,0.4145,65.9352,right
21363,0.1810,0.0255,0.3864,12.12,-1.71,59.13,0.4274,60.3838,right
21383,0.1927,0.0179,0.3944,10.60,-5.98,51.13,0.4394,52.5579,right
21403,0.1771,0.0150,0.3979,9.91,-8.29,42.69,0.4358,44.5991,right
21423,0.1804,0.0222,0.3809,8.50,-12.02,35.79,0.4220,38.6954,right
21443,0.1903,0.0295,0.3802,7.33,-11.16,29.56,0.4262,32.4328,right
21463,0.1859,0.0322,0.3909,6.40,-8.37,24.31,0.4340,26.4890,right
21483,0.1724,0.0314,0.3960,4.70,-11.98,17.83,0.4330,21.9938,right
21503,0.1649,0.0312,0.3926,4.08,-16.06,12.64,0.4270,20.8417,right
21523,0.1749,0.0393,0.3879,3.16,-16.53,8.46,0.4274,18.8391,right
21543,0.1833,0.0365,0.3906,2.47,-13.94,3.60,0.4331,14.6080,right
21563,0.1827,0.0381,0.3917,1.47,-10.67,-0.41,0.4339,10.7798,right
21583,0.1665,0.0413,0.3960,0.20,-6.76,-3.01,0.4316,7.4046,right
21603,0.1473,0.0354,0.4014,-0.70,-5.48,-4.08,0.4290,6.8666,right
21623,0.1438,0.0365,0.4015,-0.82,-6.63,-5.76,0.4280,8.8154,right
21643,0.1370,0.0347,0.4097,-0.70,-6.23,-6.84,0.4333,9.2777,right
21663,0.1266,0.0369,0.4111,-0.34,-7.04,-7.27,0.4318,10.1223,right
21683,0.1243,0.0363,0.4100,0.69,-9.62,-8.15,0.4300,12.6274,right
21703,0.1320,0.0369,0.4093,1.34,-10.95,-7.10,0.4316,13.1161,right
21723,0.1570,0.0413,0.4034,1.25,-5.63,-6.69,0.4349,8.8329,right
21743,0.1442,0.0376,0.4038,1.15,1.92,-6.43,0.4304,6.8062,right
21763,0.1267,0.0414,0.4076,1.50,4.37,-5.39,0.4288,7.0957,right
21783,0.1205,0.0404,0.4108,1.94,1.71,-4.93,0.4300,5.5679,right
21803,0.1215,0.0399,0.4050,2.70,-0.18,-4.41,0.4247,5.1772,right
21823,0.1273,0.0441,0.4084,2.61,-1.88,-4.09,0.4301,5.2042,right
21843,0.1289,0.0444,0.4060,2.40,-1.85,-3.10,0.4283,4.3317,right
21863,0.1299,0.0406,0.4115,2.23,-2.61,-2.72,0.4334,4.3783,right
21883,0.1372,0.0446,0.4089,2.53,-2.69,-2.69,0.4336,4.5676,stop
21903,0.1437,0.0508,0.4033,2.29,-0.32,-2.17,0.4311,3.1697,stop
21923,0.1423,0.0514,0.3955,1.79,0.58,-2.09,0.4235,2.8111,stop
21943,0.1335,0.0474,0.4070,1.51,0.64,-2.93,0.4309,3.3598,stop
21963,0.1311,0.0433,0.4033,1.63,-2.49,-3.45,0.4263,4.5570,stop
21983,0.1395,0.0476,0.4023,1.39,-2.90,-3.51,0.4285,4.7618,stop
22003,0.1354,0.0494,0.4008,0.82,-2.20,-3.63,0.4259,4.3262,stop
22023,0.1300,0.0508,0.4060,0.90,-3.28,-3.69,0.4293,5.0236,stop
22043,0.1366,0.0511,0.3993,0.67,-2.95,-3.36,0.4251,4.5183,stop
22063,0.1375,0.0540,0.4026,-0.05,-2.06,-3.33,0.4288,3.9150,stop
22083,0.1283,0.0514,0.4093,-0.31,-2.02,-2.87,0.4320,3.5203,stop
22103,0.1327,0.0475,0.4039,-0.34,-3.42,-2.44,0.4278,4.2161,stop
22123,0.1324,0.0491,0.4066,-0.24,-3.51,-1.89,0.4304,3.9967,stop
22143,0.1344,0.0466,0.3981,-0.24,-2.43,-2.03,0.4227,3.1742,stop
22163,0.1316,0.0457,0.4080,0.34,-2.92,-2.09,0.4311,3.6043,stop
22183,0.1353,0.0475,0.4030,1.19,-4.31,-1.92,0.4277,4.8636,stop
22203,0.1428,0.0552,0.3960,0.76,-3.77,-2.46,0.4246,4.5656,stop
22223,0.1443,0.0518,0.3911,0.34,-1.22,-3.01,0.4201,3.2635,stop
22243,0.1390,0.0471,0.3926,0.49,-0.52,-3.25,0.4191,3.3291,stop
22263,0.1376,0.0482,0.3928,0.05,-1.16,-3.59,0.4190,3.7710,stop
22283,0.1472,0.0481,0.3889,-0.41,0.05,-3.86,0.4186,3.8848,stop
22303,0.1447,0.0494,0.3910,-1.34,0.96,-5.42,0.4198,5.6661,stop
22323,0.1508,0.0515,0.3881,-2.44,0.43,-6.37,0.4195,6.8323,stop
22343,0.1593,0.0554,0.3706,-4.95,0.52,-7.11,0.4072,8.6807,stop
22363,0.1698,0.0580,0.3479,-8.96,4.56,-8.79,0.3914,13.3598,stop
22383,0.1605,0.0569,0.3464,-13.68,8.40,-11.62,0.3860,19.8146,stop
22403,0.1635,0.0472,0.3558,-17.65,9.16,-13.88,0.3944,24.2485,stop
22423,0.1667,0.0477,0.3466,-21.88,9.42,-17.92,0.3875,29.8099,stop
22443,0.1584,0.0524,0.3280,-28.87,8.66,-21.65,0.3680,37.1093,stop
22463,0.1482,0.0491,0.3029,-36.92,5.98,-24.70,0.3407,44.8198,stop
22483,0.1562,0.0457,0.2909,-46.27,2.64,-27.24,0.3333,53.7603,stop
22503,0.1376,0.0205,0.3003,-56.32,0.11,-31.19,0.3309,64.3808,stop
22523,0.0996,-0.0061,0.2959,-66.12,-9.30,-33.57,0.3123,74.7375,stop
22543,0.1344,-0.0221,0.2793,-74.24,-14.60,-34.40,0.3107,83.1167,stop
22563,0.1687,-0.0403,0.2539,-84.20,-0.46,-36.89,0.3075,91.9246,stop
22583,0.1443,-0.0450,0.2521,-96.76,13.86,-37.51,0.2939,104.7016,stop
22603,0.1167,-0.0773,0.2524,-109.89,14.92,-34.84,0.2886,116.2445,stop
22623,0.0631,-0.1165,0.2644,-121.89,5.53,-34.29,0.2957,126.7450,stop
22643,0.0533,-0.1453,0.2622,-133.42,-17.45,-34.43,0.3045,138.8907,stop
22663,0.0901,-0.1766,0.2515,-143.40,-24.93,-33.97,0.3202,149.4669,stop
22683,0.1180,-0.2195,0.2561,-154.47,-3.33,-28.63,0.3573,157.1385,stop
22703,0.0840,-0.2614,0.2736,-163.44,20.70,-18.95,0.3875,165.8270,stop
22723,0.0282,-0.2823,0.2810,-173.95,27.50,-8.24,0.3993,176.3067,stop
22743,-0.0199,-0.3098,0.2795,-184.11,19.56,3.48,0.4178,185.1754,stop
22763,-0.0192,-0.3479,0.2804,-188.32,0.14,10.69,0.4472,188.6237,stop
22783,0.0239,-0.3770,0.2706,-187.91,-13.88,12.09,0.4647,188.8078,stop
22803,0.0715,-0.3990,0.2480,-190.09,-14.49,10.76,0.4753,190.9465,stop
22823,0.1149,-0.4304,0.2498,-193.94,-4.03,11.08,0.5107,194.2972,stop
22843,0.1278,-0.4696,0.2649,-193.98,4.53,13.04,0.5541,194.4753,stop
22863,0.0776,-0.5116,0.2828,-191.45,10.20,17.94,0.5897,192.5592,stop
22883,0.0773,-0.5223,0.2852,-194.85,3.30,18.20,0.6001,195.7307,stop
22903,0.1198,-0.6104,0.3031,-179.44,0.53,14.52,0.6919,180.0224,stop
22923,0.1350,-0.5969,0.2792,-155.04,6.02,8.84,0.6727,155.4064,stop
22943,0.0941,-0.5526,0.2611,-142.18,5.65,11.31,0.6184,142.7444,stop
22963,0.0979,-0.5719,0.2618,-130.58,-0.38,16.37,0.6366,131.6024,stop
22983,0.1152,-0.6005,0.2532,-114.15,-6.05,11.85,0.6618,114.9249,stop
23003,0.1583,-0.6099,0.2542,-92.92,-5.95,1.11,0.6794,93.1133,stop
23023,0.1621,-0.5854,0.2473,-70.72,2.93,-4.67,0.6559,70.9323,stop
23043,0.1261,-0.5709,0.2361,-56.20,6.15,0.03,0.6305,56.5343,stop
23063,0.1342,-0.5853,0.2216,-40.76,8.87,2.53,0.6401,41.7942,stop
23083,0.1311,-0.6001,0.2311,-20.78,14.26,-2.14,0.6563,25.2914,stop
23103,0.1116,-0.5914,0.2485,-0.50,14.78,-5.83,0.6512,15.8957,stop
23123,0.1168,-0.5759,0.2507,16.69,13.54,-5.60,0.6389,22.2089,stop
23143,0.1299,-0.5614,0.2405,31.98,18.18,-5.50,0.6244,37.2003,stop
23163,0.1129,-0.5565,0.2404,44.87,20.09,-3.59,0.6166,49.2938,stop
23183,0.0963,-0.5547,0.2301,57.22,17.98,-1.47,0.6082,59.9990,stop
23203,0.0927,-0.5459,0.2291,69.88,13.44,-2.84,0.5992,71.2143,stop
23223,0.1008,-0.5502,0.2310,82.21,7.82,-5.60,0.6051,82.7744,stop
23243,0.1115,-0.5383,0.2312,93.24,5.22,-6.82,0.5964,93.6318,stop
23263,0.1127,-0.5321,0.2389,103.94,6.05,-6.46,0.5941,104.3147,stop
23283,0.0966,-0.5198,0.2415,112.29,3.19,-5.18,0.5812,112.4546,stop
23303,0.0769,-0.5134,0.2401,119.65,-5.21,-5.19,0.5720,119.8745,stop
23323,0.0620,-0.5154,0.2505,125.80,-16.14,-5.83,0.5764,126.9663,stop
23343,0.0652,-0.5189,0.2620,132.69,-25.68,-7.89,0.5849,135.3794,stop
23363,0.0930,-0.5054,0.2627,140.34,-28.78,-10.93,0.5771,143.6728,stop
23383,0.0922,-0.4994,0.2920,148.29,-26.98,-10.31,0.5858,151.0758,stop
23403,0.0837,-0.4766,0.2903,153.77,-30.41,-6.93,0.5643,156.9027,stop
23423,0.0981,-0.4580,0.2756,158.12,-32.46,-7.76,0.5435,161.6053,stop
23443,0.1050,-0.4451,0.2972,164.31,-32.15,-11.92,0.5454,167.8458,stop
23463,0.1133,-0.4388,0.3359,172.58,-34.17,-16.03,0.5642,176.6588,stop
23483,0.1169,-0.4125,0.3264,179.77,-36.64,-20.00,0.5388,184.5540,stop
23503,0.1383,-0.3831,0.3239,186.17,-35.83,-23.91,0.5203,191.0865,stop
23523,0.1642,-0.3452,0.3065,190.35,-30.89,-28.67,0.4900,194.9604,stop
23543,0.1515,-0.3088,0.2966,193.11,-23.16,-28.98,0.4542,196.6451,stop
23563,0.1344,-0.2682,0.2825,190.18,-17.04,-26.96,0.4120,192.8390,stop
23583,0.1295,-0.2394,0.2947,186.34,-15.73,-27.02,0.4011,188.9407,stop
23603,0.1250,-0.2068,0.3123,184.02,-17.66,-27.48,0.3948,186.8926,stop
23623,0.0989,-0.1471,0.2664,177.95,-20.69,-24.61,0.3199,180.8351,stop
23643,0.1077,-0.0995,0.2557,168.60,-23.11,-21.74,0.2948,171.5556,stop
23663,0.1470,-0.0623,0.2493,159.50,-20.84,-21.97,0.2960,162.3453,stop
23683,0.1682,-0.0077,0.2378,147.62,-9.85,-21.04,0.2914,149.4347,stop
23703,0.1526,0.0378,0.2344,130.40,0.50,-15.08,0.2822,131.2674,stop
23723,0.1345,0.0657,0.2258,112.14,5.97,-7.02,0.2709,112.5156,stop
23743,0.1290,0.0804,0.2236,95.37,7.56,-1.02,0.2704,95.6785,stop
23763,0.1194,0.1058,0.2224,79.16,9.19,5.27,0.2737,79.8659,stop
23783,0.1270,0.1248,0.2250,62.81,7.44,9.80,0.2869,64.0027,stop
23803,0.1237,0.1375,0.2501,47.08,0.82,14.41,0.3110,49.2472,stop
23823,0.1135,0.1237,0.2726,33.95,-10.15,17.22,0.3201,39.4023,stop
23843,0.1449,0.1163,0.2831,24.12,-20.43,17.18,0.3386,35.9744,stop
23863,0.1919,0.1229,0.2794,16.55,-18.99,15.24,0.3606,29.4407,stop
23883,0.2181,0.1274,0.2971,9.48,-7.86,14.63,0.3900,19.1214,stop
23903,0.2034,0.1284,0.3031,2.12,0.52,14.99,0.3869,15.1507,stop
23923,0.1927,0.1177,0.3169,-3.66,4.29,14.55,0.3891,15.6052,stop
23943,0.1909,0.1155,0.3407,-7.25,4.14,13.13,0.4073,15.5595,stop
23963,0.1964,0.1099,0.3595,-8.55,1.33,9.89,0.4241,13.1428,stop
23983,0.1947,0.1058,0.3706,-9.27,-1.01,7.44,0.4318,11.9238,stop
24003,0.1942,0.1039,0.3706,-9.39,-1.94,5.65,0.4311,11.1278,stop
