time_ms,ax,ay,az,gx,gy,gz,acc_mag,gyro_mag,label
48703,0.0801,0.0192,0.4086,1.24,-2.46,0.02,0.4168,2.7516,idle
48723,0.0730,0.0205,0.4149,1.24,-1.60,-0.09,0.4218,2.0267,idle
48743,0.0757,0.0190,0.4109,1.48,-1.68,0.26,0.4182,2.2541,idle
48763,0.0764,0.0206,0.4084,1.07,-1.98,-0.02,0.4160,2.2542,idle
48783,0.0791,0.0214,0.4073,0.40,-1.02,0.58,0.4155,1.2412,idle
48803,0.0699,0.0188,0.4109,-0.26,-0.49,1.04,0.4172,1.1764,idle
48823,0.0765,0.0201,0.4167,-0.61,-1.91,0.55,0.4242,2.0777,idle
48843,0.0778,0.0184,0.4108,-0.29,-2.20,0.21,0.4185,2.2278,idle
48863,0.0787,0.0199,0.4115,-0.73,-1.65,-0.09,0.4194,1.8067,idle
48883,0.0782,0.0161,0.4203,-0.72,-1.51,-0.29,0.4278,1.6981,idle
48903,0.0787,0.0197,0.4207,-0.02,-1.74,-0.58,0.4284,1.8347,idle
48923,0.0781,0.0208,0.4149,-0.32,-1.39,-0.24,0.4227,1.4466,idle
48943,0.0765,0.0168,0.4142,-0.31,-2.58,-0.41,0.4215,2.6307,idle
48963,0.0747,0.0182,0.4144,0.24,-2.14,-0.41,0.4215,2.1905,idle
48983,0.0786,0.0179,0.4155,0.20,-1.74,-0.26,0.4233,1.7709,idle
49003,0.0728,0.0195,0.4197,0.06,-1.57,0.09,0.4264,1.5764,idle
49023,0.0692,0.0178,0.4186,0.34,-2.72,0.24,0.4246,2.7491,idle
49043,0.0740,0.0206,0.4174,0.50,-3.47,-0.08,0.4244,3.5029,idle
49063,0.0751,0.0205,0.4167,0.44,-3.77,0.06,0.4240,3.7974,idle
49083,0.0726,0.0186,0.4119,0.38,-3.48,1.10,0.4186,3.6703,idle
49103,0.0802,0.0157,0.4110,0.14,-3.57,1.04,0.4191,3.7228,idle
49123,0.0770,0.0197,0.4138,0.17,-1.07,0.87,0.4214,1.3884,idle
49143,0.0675,0.0199,0.4122,-0.29,-1.62,0.61,0.4182,1.7539,idle
49163,0.0713,0.0173,0.4165,-0.15,-3.02,1.44,0.4229,3.3497,idle
49183,0.0784,0.0154,0.4136,-0.17,-3.54,0.76,0.4212,3.6272,idle
49203,0.0790,0.0182,0.4167,-0.02,-2.20,0.81,0.4246,2.3427,idle
49223,0.0789,0.0177,0.4148,0.18,-1.77,0.53,0.4226,1.8589,idle
49243,0.0817,0.0177,0.4174,0.00,-1.62,0.09,0.4256,1.6209,idle
49263,0.0793,0.0128,0.4203,0.23,-1.85,-0.49,0.4279,1.9245,idle
49283,0.0752,0.0165,0.4142,0.61,-2.06,-0.85,0.4213,2.3134,idle
49303,0.0753,0.0184,0.4154,0.56,-1.76,-0.37,0.4226,1.8804,idle
49323,0.0779,0.0116,0.4117,0.76,-1.56,-0.43,0.4192,1.7862,idle
49343,0.0731,0.0151,0.4124,0.69,-1.18,-0.81,0.4191,1.5839,idle
49363,0.0743,0.0160,0.4169,0.73,-1.74,-0.40,0.4237,1.9297,idle
49383,0.0771,0.0162,0.4143,0.63,-1.11,0.06,0.4217,1.2797,idle
49403,0.0732,0.0189,0.4136,0.73,-1.66,0.14,0.4204,1.8235,idle
49423,0.0754,0.0146,0.4170,0.89,-2.70,0.12,0.4240,2.8463,idle
49443,0.0814,0.0143,0.4121,1.15,-2.12,-0.06,0.4203,2.4121,idle
49463,0.0763,0.0162,0.4119,0.75,-1.15,-0.26,0.4192,1.3922,idle
49483,0.0745,0.0154,0.4137,0.82,-0.85,0.06,0.4206,1.1893,idle
49503,0.0765,0.0168,0.4133,0.64,-1.22,0.41,0.4207,1.4397,idle
49523,0.0789,0.0192,0.4075,-0.08,-0.81,0.50,0.4155,0.9562,idle
49543,0.0731,0.0165,0.4165,0.00,-0.99,0.21,0.4232,1.0151,idle
49563,0.0731,0.0176,0.4131,0.17,-1.71,0.03,0.4199,1.7184,idle
49583,0.0780,0.0164,0.4137,0.46,-1.37,-0.11,0.4213,1.4523,idle
49603,0.0747,0.0166,0.4193,0.27,-1.95,-0.11,0.4262,1.9763,idle
49623,0.0780,0.0193,0.4181,0.78,-2.02,-0.03,0.4257,2.1607,idle
49643,0.0771,0.0177,0.4136,0.84,-0.84,0.09,0.4211,1.1910,idle
49663,0.0778,0.0160,0.4155,0.79,-0.21,0.12,0.4230,0.8312,idle
49683,0.0712,0.0160,0.4165,0.92,-0.75,-0.09,0.4228,1.1862,idle
49703,0.0746,0.0188,0.4147,1.18,-1.94,-0.50,0.4217,2.3228,idle
49723,0.0740,0.0170,0.4176,0.92,-2.08,-0.27,0.4244,2.2860,idle
49743,0.0787,0.0122,0.4128,0.84,-1.62,-0.09,0.4205,1.8255,idle
49763,0.0751,0.0166,0.4130,0.95,-0.46,-0.27,0.4201,1.0869,idle
49783,0.0697,0.0217,0.4097,0.20,-0.67,0.23,0.4161,0.7369,idle
49803,0.0693,0.0179,0.4094,-0.17,-1.47,0.61,0.4156,1.5966,idle
49823,0.0736,0.0165,0.4181,-0.72,-1.47,0.98,0.4248,1.9020,idle
49843,0.0712,0.0148,0.4099,-1.30,-1.19,1.04,0.4163,2.0445,idle
49863,0.0757,0.0159,0.4174,-1.01,-1.22,1.10,0.4245,1.9275,idle
49883,0.0769,0.0153,0.4221,-0.37,-1.02,0.84,0.4293,1.3732,idle
49903,0.0796,0.0101,0.4233,-0.40,-1.48,0.92,0.4309,1.7860,idle
49923,0.0782,0.0079,0.4203,1.04,-1.22,0.18,0.4276,1.6134,idle
49943,0.0822,0.0184,0.4156,1.59,-0.09,-0.20,0.4241,1.6028,idle
49963,0.0730,0.0146,0.4198,1.15,0.31,-0.26,0.4264,1.2131,idle
49983,0.0710,0.0117,0.4110,1.34,-0.49,-0.72,0.4173,1.5996,idle
50003,0.0673,0.0167,0.4095,1.77,-0.81,-0.34,0.4154,1.9758,idle
50023,0.0647,0.0216,0.4094,0.78,-1.31,0.35,0.4151,1.5664,idle
50043,0.0712,0.0135,0.4149,0.52,-1.86,0.63,0.4212,2.0324,idle
50063,0.0707,0.0151,0.4081,0.98,-1.16,0.02,0.4144,1.5170,idle
50083,0.0739,0.0173,0.4122,0.61,-0.49,-0.32,0.4192,0.8452,idle
50103,0.0682,0.0198,0.4098,0.03,-0.72,0.52,0.4159,0.8862,idle
50123,0.0692,0.0132,0.4142,-0.21,-0.92,1.34,0.4201,1.6401,idle
50143,0.0782,0.0142,0.4197,0.35,-0.63,1.21,0.4271,1.4035,idle
50163,0.0724,0.0165,0.4165,0.40,-0.37,0.78,0.4231,0.9477,idle
50183,0.0706,0.0146,0.4198,0.32,-0.43,0.76,0.4259,0.9318,idle
50203,0.0717,0.0190,0.4203,0.49,-1.36,0.29,0.4268,1.4728,idle
50223,0.0730,0.0183,0.4189,0.82,-1.82,0.11,0.4257,1.9980,idle
50243,0.0746,0.0205,0.4191,0.95,-1.63,-0.17,0.4261,1.8955,idle
50263,0.0720,0.0139,0.4225,1.42,-2.49,-0.18,0.4288,2.8710,idle
50283,0.0767,0.0149,0.4219,2.11,-2.02,-0.64,0.4290,2.9852,idle
50303,0.0695,0.0144,0.4159,2.41,-1.42,-0.23,0.4219,2.8084,idle
50323,0.0709,0.0153,0.4156,2.55,-1.82,-0.37,0.4219,3.1521,idle
50343,0.0679,0.0151,0.4144,1.83,-1.98,-0.08,0.4202,2.7021,idle
50363,0.0670,0.0092,0.4095,0.93,-2.44,0.44,0.4151,2.6515,idle
50383,0.0713,0.0223,0.4103,-0.49,-1.62,1.74,0.4170,2.4263,idle
50403,0.0698,0.0215,0.4111,-1.80,-1.56,2.08,0.4176,3.1594,idle
50423,0.0690,0.0181,0.4154,-2.27,-3.08,1.74,0.4215,4.2089,idle
50443,0.0736,0.0123,0.4174,-1.71,-4.32,1.24,0.4240,4.8084,idle
50463,0.0798,0.0168,0.4181,-1.79,-4.84,0.89,0.4260,5.2343,idle
50483,0.0825,0.0125,0.4161,-0.81,-4.34,0.06,0.4244,4.4112,idle
50503,0.0830,0.0127,0.4163,-0.69,-2.96,-0.93,0.4246,3.1799,idle
50523,0.0751,0.0148,0.4105,-0.14,-1.48,-1.39,0.4176,2.0352,idle
50543,0.0785,0.0166,0.4144,-0.24,-0.96,-1.07,0.4221,1.4584,idle
50563,0.0690,0.0170,0.4172,-0.02,-1.31,-1.24,0.4232,1.8037,idle
50583,0.0687,0.0162,0.4167,0.29,-2.05,-1.07,0.4227,2.3263,idle
50603,0.0679,0.0116,0.4119,0.82,-2.76,-0.93,0.4176,3.0304,idle
50623,0.0723,0.0157,0.4099,0.96,-1.98,-0.20,0.4165,2.2144,idle
50643,0.0703,0.0137,0.4131,0.82,-1.11,0.02,0.4193,1.3864,idle
50663,0.0677,0.0114,0.4080,0.82,-1.02,0.72,0.4137,1.4970,idle
50683,0.0729,0.0134,0.4116,0.26,-1.54,0.89,0.4182,1.7970,idle
50703,0.0701,0.0106,0.4196,0.41,-1.01,1.30,0.4255,1.6939,idle
50723,0.0699,0.0122,0.4128,0.21,-1.25,1.16,0.4189,1.7203,idle
50743,0.0726,0.0054,0.4170,-0.35,-1.56,1.05,0.4233,1.9126,idle
50763,0.0775,0.0110,0.4124,0.17,-0.79,0.69,0.4197,1.0632,idle
50783,0.0763,0.0164,0.4142,-0.53,-0.92,0.81,0.4215,1.3339,idle
50803,0.0787,0.0143,0.4131,-1.44,-1.37,0.53,0.4208,2.0574,idle
50823,0.0773,0.0092,0.4135,-1.39,-1.15,-0.37,0.4207,1.8373,idle
50843,0.0730,0.0076,0.4219,-0.67,-1.18,-1.86,0.4282,2.3027,idle
50863,0.0656,0.0083,0.4235,-0.20,-2.32,-1.97,0.4286,3.0502,idle
50883,0.0704,0.0089,0.4286,0.66,-3.79,-1.63,0.4344,4.1756,idle
50903,0.0773,0.0115,0.4163,1.13,-2.27,-1.37,0.4235,2.8878,idle
50923,0.0745,0.0140,0.4136,1.48,-0.35,-1.02,0.4205,1.8338,idle
50943,0.0702,0.0117,0.4119,1.73,-1.05,-0.85,0.4180,2.1948,idle
50963,0.0688,0.0146,0.4121,1.63,-2.09,-0.93,0.4181,2.8126,idle
50983,0.0685,0.0189,0.4094,1.16,-2.87,-0.95,0.4155,3.2374,idle
51003,0.0701,0.0168,0.4071,0.43,-3.02,-0.35,0.4134,3.0731,idle
51023,0.0707,0.0110,0.4124,-0.09,-2.85,0.12,0.4185,2.8590,idle
51043,0.0715,0.0122,0.4081,-0.27,-2.44,0.44,0.4145,2.4977,idle
51063,0.0728,0.0114,0.4105,-0.35,-1.50,0.17,0.4171,1.5460,idle
51083,0.0724,0.0070,0.4183,-0.06,-1.48,-0.41,0.4246,1.5384,idle
51103,0.0765,0.0120,0.4084,0.40,-1.18,-0.67,0.4157,1.4110,idle
51123,0.0768,0.0128,0.4149,0.15,-0.31,-0.89,0.4222,0.9490,idle
51143,0.0652,0.0153,0.4098,-0.18,-0.52,-0.44,0.4152,0.7064,idle
51163,0.0704,0.0156,0.4156,-0.11,-0.84,0.05,0.4219,0.8477,idle
51183,0.0685,0.0070,0.4172,0.23,-1.47,0.27,0.4229,1.5087,idle
51203,0.0735,0.0087,0.4138,0.47,-1.22,0.05,0.4204,1.3107,idle
51223,0.0760,0.0115,0.4043,0.12,-0.08,-0.40,0.4115,0.4223,idle
51243,0.0732,0.0154,0.4128,-0.64,0.06,0.29,0.4196,0.7064,idle
51263,0.0715,0.0172,0.4111,-1.30,-0.24,0.81,0.4177,1.5487,idle
51283,0.0717,0.0146,0.4198,-1.66,-0.23,0.75,0.4261,1.8389,idle
51303,0.0658,0.0089,0.4208,-0.72,0.27,-0.17,0.4260,0.7865,idle
51323,0.0625,0.0067,0.4254,0.27,-0.85,-1.24,0.4300,1.5283,idle
51343,0.0645,0.0052,0.4236,1.48,-2.18,-0.67,0.4285,2.7223,idle
51363,0.0752,0.0040,0.4243,2.29,-1.51,0.56,0.4309,2.8014,idle
51383,0.0747,0.0073,0.4225,3.01,0.95,1.22,0.4291,3.3814,idle
51403,0.0660,0.0038,0.4242,3.42,1.74,0.95,0.4293,3.9523,idle
51423,0.0649,0.0026,0.4237,3.92,-0.98,0.35,0.4287,4.0587,idle
51443,0.0690,0.0089,0.4171,4.20,-2.78,-0.34,0.4229,5.0459,idle
51463,0.0708,0.0084,0.4147,3.59,-2.21,-0.53,0.4208,4.2495,idle
51483,0.0684,0.0092,0.4106,2.37,-2.08,-0.03,0.4164,3.1483,idle
51503,0.0629,0.0095,0.4155,1.63,-2.89,0.85,0.4204,3.4243,idle
51523,0.0685,0.0125,0.4144,1.01,-5.19,0.96,0.4202,5.3745,idle
51543,0.0802,0.0071,0.4198,0.96,-3.65,0.27,0.4275,3.7835,idle
51563,0.0735,0.0115,0.4218,1.37,-1.56,0.24,0.4283,2.0911,idle
51583,0.0660,0.0076,0.4188,1.37,-2.50,-0.21,0.4241,2.8641,idle
51603,0.0742,0.0096,0.4156,1.07,-3.85,-0.84,0.4223,4.0803,idle
51623,0.0747,0.0121,0.4108,1.24,-3.54,-1.45,0.4177,4.0223,idle
51643,0.0724,0.0212,0.4039,0.05,-2.84,-1.33,0.4109,3.1353,idle
51663,0.0708,0.0190,0.4071,-1.21,-2.11,-0.61,0.4137,2.5033,forward
51683,0.0702,0.0181,0.4093,-1.83,-2.18,-0.24,0.4157,2.8605,forward
51703,0.0707,0.0150,0.4142,-1.80,-3.04,-0.43,0.4204,3.5579,forward
51723,0.0720,0.0103,0.4242,-0.89,-3.66,-0.47,0.4304,3.7992,forward
51743,0.0771,0.0115,0.4138,-0.02,-3.51,-0.85,0.4211,3.6141,forward
51763,0.0784,0.0104,0.4183,0.44,-2.61,-0.66,0.4257,2.7281,forward
51783,0.0787,0.0126,0.4133,1.68,-1.62,-1.10,0.4210,2.5783,forward
51803,0.0754,0.0129,0.4167,2.17,-0.64,-1.25,0.4237,2.5843,forward
51823,0.0680,0.0121,0.4148,2.08,-0.98,-1.85,0.4205,2.9459,forward
51843,0.0629,0.0109,0.4131,2.29,-1.86,-1.60,0.4180,3.3591,forward
51863,0.0632,0.0168,0.4158,1.63,-3.40,-0.61,0.4209,3.8253,forward
51883,0.0710,0.0176,0.4192,0.60,-3.48,-0.08,0.4255,3.5323,forward
51903,0.0712,0.0172,0.4113,-0.26,-1.98,0.76,0.4177,2.1423,forward
51923,0.0715,0.0144,0.4171,-0.61,-1.65,1.47,0.4234,2.2891,forward
51943,0.0646,0.0126,0.4222,-0.50,-1.76,2.12,0.4273,2.8000,forward
51963,0.0699,0.0100,0.4274,0.20,-3.13,1.62,0.4332,3.5290,forward
51983,0.0742,0.0070,0.4271,1.56,-3.47,1.05,0.4336,3.9428,forward
52003,0.0747,0.0052,0.4242,2.81,-3.36,0.61,0.4308,4.4211,forward
52023,0.0752,0.0057,0.4232,4.05,-3.68,0.43,0.4299,5.4854,forward
52043,0.0780,0.0115,0.4156,4.76,-3.07,0.46,0.4231,5.6847,forward
52063,0.0797,0.0139,0.4111,4.95,-2.11,0.34,0.4190,5.3870,forward
52083,0.0778,0.0148,0.4058,4.09,-1.40,-0.02,0.4134,4.3260,forward
52103,0.0706,0.0188,0.3965,2.49,-1.97,0.15,0.4032,3.1773,forward
52123,0.0728,0.0210,0.3965,1.15,-2.52,0.03,0.4037,2.7673,forward
52143,0.0728,0.0186,0.4037,-0.79,-1.97,0.43,0.4106,2.1661,forward
52163,0.0808,0.0181,0.3909,-2.38,-1.65,-0.41,0.3995,2.9259,forward
52183,0.0817,0.0153,0.3939,-4.56,-0.26,-0.11,0.4026,4.5735,forward
52203,0.0785,0.0153,0.3921,-6.05,0.21,-0.61,0.4002,6.0803,forward
52223,0.0781,0.0165,0.3984,-7.69,0.95,-0.41,0.4064,7.7636,forward
52243,0.0781,0.0121,0.3998,-9.62,2.43,-0.26,0.4075,9.9233,forward
52263,0.0757,0.0076,0.4062,-10.78,2.85,-0.72,0.4133,11.1734,forward
52283,0.0847,0.0057,0.4144,-11.13,3.07,-2.02,0.4230,11.7196,forward
52303,0.0784,-0.0012,0.4233,-10.89,4.27,-3.05,0.4305,12.0868,forward
52323,0.0817,0.0016,0.4314,-10.29,3.74,-3.80,0.4391,11.5900,forward
52343,0.0702,0.0051,0.4359,-9.56,3.18,-2.93,0.4416,10.4889,forward
52363,0.0714,0.0034,0.4438,-8.76,1.91,-1.76,0.4496,9.1390,forward
52383,0.0692,-0.0039,0.4618,-6.96,-0.90,-1.02,0.4670,7.0940,forward
52403,0.0780,-0.0022,0.4841,-3.79,-4.49,-0.82,0.4904,5.9298,forward
52423,0.0710,-0.0094,0.5122,0.14,-5.69,0.44,0.5172,5.7135,forward
52443,0.0736,-0.0204,0.5314,5.39,-10.76,1.04,0.5368,12.0819,forward
52463,0.0995,-0.0287,0.5483,14.55,-14.81,-0.08,0.5580,20.7607,forward
52483,0.1367,-0.0312,0.5487,24.60,-7.13,-2.44,0.5663,25.7242,forward
52503,0.1169,-0.0237,0.5500,32.99,1.08,0.63,0.5628,33.0161,forward
52523,0.0764,-0.0375,0.5616,44.81,-1.73,-3.92,0.5681,45.0137,forward
52543,0.0221,-0.0277,0.5796,58.70,-21.36,-6.24,0.5807,62.7786,forward
52563,0.0385,-0.0190,0.5797,72.69,-46.12,-9.34,0.5813,86.5907,forward
52583,0.1047,-0.0168,0.5430,87.69,-57.63,-15.24,0.5532,106.0384,forward
52603,0.1464,0.0146,0.4950,100.44,-50.99,-21.13,0.5164,114.6099,forward
52623,0.1519,0.0349,0.4847,109.53,-37.82,-23.73,0.5092,118.2755,forward
52643,0.1155,0.0366,0.4772,118.60,-33.85,-24.84,0.4923,125.8075,forward
52663,0.0959,0.0582,0.4314,126.89,-37.73,-27.77,0.4458,135.2566,forward
52683,0.0869,0.0786,0.4187,132.52,-43.10,-31.62,0.4348,142.8936,forward
52703,0.0662,0.0995,0.3885,137.44,-53.25,-32.41,0.4065,150.9130,forward
52723,0.0826,0.1211,0.3416,139.82,-60.15,-34.35,0.3717,156.0355,forward
52743,0.1072,0.1398,0.3312,141.48,-59.02,-35.68,0.3751,157.3962,forward
52763,0.1091,0.1652,0.2911,141.39,-54.31,-34.89,0.3521,155.4252,forward
52783,0.1057,0.1941,0.2622,139.33,-45.18,-32.99,0.3429,150.1389,forward
52803,0.0972,0.2090,0.2573,137.65,-41.54,-31.42,0.3454,147.1739,forward
52823,0.1093,0.2319,0.2031,134.21,-37.31,-28.90,0.3271,142.2703,forward
52843,0.1543,0.2642,0.1863,127.95,-24.58,-28.03,0.3582,133.2748,forward
52863,0.1432,0.2803,0.2048,123.59,-12.73,-25.27,0.3755,126.7852,forward
52883,0.1006,0.2916,0.1843,118.24,-10.50,-21.25,0.3594,120.5972,forward
52903,0.0896,0.3038,0.1615,110.89,-14.17,-21.33,0.3556,113.8034,forward
52923,0.0983,0.3119,0.1744,106.43,-19.86,-21.50,0.3706,110.3785,forward
52943,0.0927,0.3212,0.1791,105.02,-30.81,-21.59,0.3792,111.5574,forward
52963,0.1040,0.3376,0.1259,101.69,-41.07,-22.92,0.3750,112.0428,forward
52983,0.1348,0.3691,0.0701,94.69,-36.67,-25.05,0.3992,104.5855,forward
53003,0.1332,0.3892,0.0936,87.04,-27.25,-23.18,0.4218,94.1032,forward
53023,0.1094,0.3885,0.1017,80.43,-28.58,-19.18,0.4163,87.4820,forward
53043,0.1104,0.3939,0.0890,74.96,-34.70,-19.62,0.4187,84.9023,forward
53063,0.1277,0.4109,0.0664,71.08,-38.46,-22.08,0.4354,83.7813,forward
53083,0.1475,0.4196,0.0433,65.71,-33.56,-24.64,0.4468,77.7886,forward
53103,0.1584,0.4362,0.0225,58.89,-21.76,-25.85,0.4646,67.8889,forward
53123,0.1489,0.4613,-0.0038,50.21,-9.89,-24.95,0.4848,56.9353,forward
53143,0.1421,0.4795,-0.0222,40.08,0.99,-20.49,0.5006,45.0209,forward
53163,0.1366,0.4768,0.0015,30.64,11.31,-15.86,0.4960,36.3110,forward
53183,0.1018,0.4836,0.0021,22.40,12.50,-12.70,0.4942,28.6237,forward
53203,0.0858,0.4945,-0.0054,12.61,7.19,-8.92,0.5019,17.0362,forward
53223,0.0948,0.4968,-0.0293,2.29,5.16,-4.67,0.5066,7.3279,forward
53243,0.1005,0.4948,-0.0309,-9.56,8.92,-0.98,0.5058,13.1069,forward
53263,0.0713,0.4841,-0.0040,-18.61,6.89,3.07,0.4894,20.0795,forward
53283,0.0596,0.4722,0.0173,-26.29,-4.00,6.75,0.4762,27.4355,forward
53303,0.0913,0.4612,0.0240,-31.51,-13.66,8.12,0.4707,35.2938,forward
53323,0.1143,0.4631,0.0175,-36.63,-14.14,9.10,0.4773,40.3004,forward
53343,0.1219,0.4603,0.0271,-42.34,-7.59,11.94,0.4770,44.6367,forward
53363,0.1184,0.4543,0.0223,-47.79,0.52,15.63,0.4701,50.2813,forward
53383,0.1313,0.4532,0.0149,-55.82,12.66,18.43,0.4721,60.1271,forward
53403,0.1306,0.4563,-0.0116,-68.47,27.19,19.85,0.4748,76.3010,forward
53423,0.1112,0.4473,0.0200,-83.24,40.61,23.76,0.4613,95.6133,forward
53443,0.0569,0.4236,0.0868,-92.63,36.76,30.85,0.4361,104.3223,forward
53463,0.0569,0.4041,0.0828,-101.19,18.37,36.12,0.4163,109.0033,forward
53483,0.1132,0.3998,0.0320,-112.90,20.85,39.15,0.4167,121.3006,forward
53503,0.1385,0.3621,0.1101,-124.23,32.70,38.47,0.4030,134.0988,forward
53523,0.1078,0.3419,0.1462,-128.09,32.09,47.13,0.3872,140.2089,forward
53543,0.1345,0.3406,0.0880,-136.15,37.69,49.65,0.3766,149.7446,forward
53563,0.1715,0.3101,0.1074,-150.85,67.15,50.11,0.3703,172.5583,forward
53583,0.1045,0.2526,0.2195,-156.98,76.60,51.08,0.3505,181.9842,forward
53603,0.0345,0.2186,0.2955,-154.06,51.91,53.22,0.3692,171.0608,forward
53623,0.0538,0.1833,0.3335,-150.56,15.19,50.52,0.3844,159.5391,forward
53643,0.1548,0.1475,0.3010,-144.75,1.45,44.44,0.3692,151.4241,forward
53663,0.2434,0.1353,0.2700,-140.40,29.56,37.74,0.3879,148.3552,forward
53683,0.2091,0.1085,0.3986,-131.98,58.15,30.03,0.4630,147.3212,forward
53703,0.1191,0.1002,0.4407,-120.90,52.06,25.36,0.4674,134.0538,forward
53723,0.1028,0.1078,0.4032,-114.18,39.56,23.97,0.4298,123.1954,forward
53743,0.1525,0.1096,0.3582,-110.37,46.21,22.81,0.4044,121.8060,forward
53763,0.1708,0.0754,0.4196,-108.95,68.37,20.06,0.4592,130.1759,forward
53783,0.0676,0.0300,0.4565,-101.15,64.03,15.63,0.4625,120.7255,forward
53803,0.0033,0.0330,0.4308,-95.10,43.16,14.08,0.4321,105.3794,forward
53823,0.0555,0.0406,0.4253,-90.11,29.15,11.97,0.4308,95.4565,forward
53843,0.0754,0.0231,0.4312,-86.56,25.10,11.15,0.4383,90.8166,forward
53863,0.0353,0.0010,0.4581,-83.44,18.92,12.00,0.4595,86.3900,forward
53883,0.0280,-0.0115,0.4595,-78.32,5.53,12.32,0.4605,79.4762,forward
53903,0.0626,-0.0106,0.4358,-73.51,0.34,14.06,0.4404,74.8449,forward
53923,0.0909,-0.0099,0.4167,-72.72,5.39,15.13,0.4267,74.4701,forward
53943,0.0942,-0.0312,0.4633,-72.67,14.53,17.45,0.4738,76.1377,forward
53963,0.0563,-0.0681,0.4835,-68.20,7.86,16.93,0.4915,70.7073,forward
53983,0.0835,-0.0828,0.4578,-60.78,3.65,14.63,0.4726,62.6201,forward
54003,0.1354,-0.0768,0.4551,-55.50,15.28,10.41,0.4810,58.4961,forward
54023,0.1047,-0.0896,0.4641,-51.54,24.43,7.07,0.4841,57.4739,forward
54043,0.0593,-0.0953,0.4694,-46.24,21.63,4.89,0.4826,51.2876,forward
54063,0.0656,-0.1023,0.4794,-40.95,19.16,4.09,0.4945,45.3925,forward
54083,0.0698,-0.1183,0.4858,-34.06,14.46,1.65,0.5049,37.0393,forward
54103,0.0599,-0.1194,0.4846,-25.91,9.86,-3.25,0.5027,27.9122,forward
54123,0.0665,-0.1167,0.4823,-17.68,6.84,-7.89,0.5007,20.5340,forward
54143,0.0654,-0.1064,0.4706,-11.11,8.24,-9.85,0.4869,16.9844,forward
54163,0.0568,-0.1091,0.4668,-6.55,11.97,-9.19,0.4827,16.4511,forward
54183,0.0409,-0.1071,0.4639,-1.80,12.18,-8.67,0.4778,15.0624,forward
54203,0.0317,-0.0968,0.4584,1.21,10.58,-8.40,0.4696,13.5611,forward
54223,0.0299,-0.0944,0.4642,3.62,7.31,-7.10,0.4747,10.8153,forward
54243,0.0288,-0.0905,0.4568,5.25,2.56,-4.78,0.4665,7.5496,forward
54263,0.0356,-0.0879,0.4495,7.01,0.08,-3.77,0.4594,7.9582,forward
54283,0.0426,-0.0822,0.4415,8.34,-1.62,-3.86,0.4511,9.3287,forward
54303,0.0386,-0.0850,0.4391,9.28,-3.68,-3.86,0.4489,10.7061,forward
54323,0.0392,-0.0763,0.4395,9.57,-7.73,-3.24,0.4477,12.7196,forward
54343,0.0404,-0.0756,0.4330,8.98,-9.97,-1.36,0.4414,13.4842,forward
54363,0.0540,-0.0759,0.4249,8.43,-10.06,-0.44,0.4350,13.1318,forward
54383,0.0656,-0.0801,0.4220,9.28,-5.82,-0.63,0.4345,10.9723,forward
54403,0.0541,-0.0745,0.4231,9.25,-0.73,-0.03,0.4330,9.2809,forward
54423,0.0356,-0.0739,0.4222,8.03,-0.89,0.56,0.4301,8.0989,forward
54443,0.0317,-0.0758,0.4230,7.98,-5.60,1.62,0.4309,9.8878,forward
54463,0.0449,-0.0732,0.4104,7.47,-8.02,2.11,0.4193,11.1543,forward
54483,0.0470,-0.0739,0.4077,6.58,-6.37,2.92,0.4170,9.6090,forward
54503,0.0437,-0.0732,0.4135,6.26,-5.68,3.95,0.4222,9.3313,forward
54523,0.0438,-0.0737,0.4128,6.55,-6.05,4.37,0.4217,9.9255,forward
54543,0.0525,-0.0754,0.4119,7.08,-6.70,4.60,0.4220,10.7806,forward
54563,0.0520,-0.0693,0.4069,7.71,-6.08,4.49,0.4160,10.7941,forward
54583,0.0507,-0.0686,0.4080,8.34,-4.93,4.47,0.4168,10.6684,forward
54603,0.0483,-0.0656,0.4081,8.49,-4.75,4.49,0.4161,10.7120,forward
54623,0.0497,-0.0673,0.4088,8.12,-4.55,4.44,0.4173,10.3153,forward
54643,0.0560,-0.0679,0.4082,8.00,-3.76,4.41,0.4176,9.8779,forward
54663,0.0585,-0.0634,0.4115,8.63,-2.90,3.51,0.4204,9.7546,forward
54683,0.0615,-0.0624,0.4088,7.98,-1.28,3.01,0.4181,8.6282,forward
54703,0.0554,-0.0621,0.4048,6.82,-0.41,3.19,0.4133,7.5448,forward
54723,0.0555,-0.0607,0.4065,6.38,-0.41,2.46,0.4147,6.8511,forward
54743,0.0526,-0.0559,0.4062,5.11,-0.76,1.53,0.4134,5.3918,forward
54763,0.0554,-0.0590,0.4103,3.73,-2.67,1.97,0.4182,4.9894,forward
54783,0.0574,-0.0602,0.4100,2.56,-2.92,2.15,0.4184,4.4403,forward
54803,0.0564,-0.0581,0.4110,1.85,-2.26,1.88,0.4189,3.4705,forward
54823,0.0591,-0.0553,0.4114,1.13,-1.94,1.57,0.4193,2.7402,left
54843,0.0573,-0.0577,0.4106,1.11,-2.12,1.33,0.4186,2.7404,left
54863,0.0585,-0.0583,0.4130,1.25,-1.71,0.02,0.4211,2.1193,left
54883,0.0558,-0.0535,0.4121,1.45,-1.24,-1.28,0.4193,2.2973,left
54903,0.0527,-0.0524,0.4070,1.31,-0.46,-1.57,0.4137,2.0992,left
54923,0.0543,-0.0553,0.4136,1.44,-0.66,-1.86,0.4208,2.4413,left
54943,0.0498,-0.0577,0.4152,1.48,-0.63,-1.68,0.4221,2.3249,left
54963,0.0514,-0.0576,0.4169,1.21,-1.07,-1.98,0.4240,2.5566,left
54983,0.0537,-0.0608,0.4183,1.40,-1.50,-1.85,0.4261,2.7612,left
55003,0.0543,-0.0590,0.4143,2.32,-1.05,-2.09,0.4220,3.2969,left
55023,0.0485,-0.0566,0.4165,2.81,-1.27,-2.32,0.4231,3.8578,left
55043,0.0492,-0.0552,0.4196,3.05,-1.66,-2.38,0.4260,4.2149,left
55063,0.0531,-0.0597,0.4104,3.18,-1.33,-2.46,0.4181,4.2297,left
55083,0.0533,-0.0563,0.4102,3.01,-0.46,-2.27,0.4174,3.7987,left
55103,0.0500,-0.0581,0.4122,2.58,-0.24,-2.29,0.4193,3.4585,left
55123,0.0543,-0.0525,0.4130,2.76,-0.38,-3.15,0.4198,4.2039,left
55143,0.0566,-0.0529,0.4150,2.31,0.06,-3.48,0.4222,4.1755,left
55163,0.0570,-0.0497,0.4166,2.20,0.24,-4.02,0.4234,4.5842,left
55183,0.0537,-0.0503,0.4158,2.34,0.43,-4.38,0.4222,4.9838,left
55203,0.0559,-0.0500,0.4172,2.38,0.47,-4.81,0.4239,5.3874,left
55223,0.0570,-0.0536,0.4170,2.32,1.37,-5.01,0.4243,5.6877,left
55243,0.0565,-0.0554,0.4224,3.48,1.40,-5.48,0.4297,6.6430,left
55263,0.0537,-0.0510,0.4294,4.73,0.38,-6.69,0.4358,8.2013,left
55283,0.0610,-0.0482,0.4246,6.55,0.24,-7.48,0.4316,9.9459,left
55303,0.0573,-0.0438,0.4323,8.12,2.37,-8.05,0.4382,11.6749,left
55323,0.0436,-0.0432,0.4257,9.74,3.47,-8.76,0.4301,13.5530,left
55343,0.0317,-0.0338,0.4330,11.66,3.15,-9.19,0.4355,15.1794,left
55363,0.0187,-0.0273,0.4355,13.33,1.50,-7.73,0.4368,15.4777,left
55383,0.0172,-0.0259,0.4375,14.47,0.38,-5.21,0.4386,15.3859,left
55403,0.0193,-0.0175,0.4370,15.25,0.08,-1.95,0.4378,15.3768,left
55423,0.0143,-0.0077,0.4357,16.61,0.29,2.21,0.4360,16.7601,left
55443,0.0021,-0.0051,0.4354,16.35,1.98,7.30,0.4355,18.0154,left
55463,-0.0148,-0.0089,0.4480,14.95,6.11,12.76,0.4483,20.5815,left
55483,-0.0383,-0.0111,0.4640,14.27,13.05,23.39,0.4657,30.3516,left
55503,-0.0615,-0.0369,0.4681,22.56,19.50,34.17,0.4736,45.3511,left
55523,-0.0751,-0.0148,0.4515,30.92,20.21,43.24,0.4580,56.8665,left
55543,-0.1323,0.0009,0.4448,32.34,18.49,55.33,0.4641,66.6982,left
55563,-0.1823,-0.0112,0.4506,32.31,3.60,72.06,0.4862,79.0532,left
55583,-0.1469,-0.0210,0.4321,33.50,-11.73,89.62,0.4569,96.3894,left
55603,-0.0835,-0.0121,0.4003,33.07,-15.27,102.18,0.4091,108.4806,left
55623,-0.0522,-0.0009,0.3896,31.13,-8.79,111.94,0.3931,116.5192,left
55643,-0.0330,-0.0032,0.3945,28.06,1.65,124.85,0.3959,127.9801,left
55663,-0.0449,-0.0050,0.4008,24.84,7.98,136.85,0.4033,139.3199,left
55683,-0.0327,-0.0190,0.4110,22.61,3.85,144.81,0.4128,146.6142,left
55703,-0.0051,-0.0363,0.4193,22.32,-5.05,147.62,0.4209,149.3818,left
55723,0.0364,-0.0385,0.4099,23.48,-8.82,146.43,0.4133,148.5605,left
55743,0.0789,-0.0358,0.4043,24.69,-1.88,143.57,0.4135,145.6916,left
55763,0.0978,-0.0327,0.3976,23.59,10.61,142.05,0.4107,144.3814,left
55783,0.0930,-0.0217,0.3854,19.79,21.28,140.90,0.3970,143.8661,left
55803,0.0530,-0.0306,0.4081,14.81,21.60,139.83,0.4126,142.2639,left
55823,0.0643,-0.0253,0.4044,14.46,12.90,135.50,0.4103,136.8747,left
55843,0.0577,-0.0280,0.4026,12.34,3.88,130.78,0.4077,131.4164,left
55863,0.0830,-0.0353,0.4043,9.08,-2.79,122.02,0.4142,122.3848,left
55883,0.1057,-0.0200,0.3865,7.59,-3.30,114.20,0.4012,114.4978,left
55903,0.1251,0.0001,0.3624,3.34,2.38,108.20,0.3834,108.2763,left
55923,0.1469,-0.0070,0.3839,-0.18,11.30,99.05,0.4111,99.6958,left
55943,0.1165,0.0155,0.3905,-2.98,16.99,91.08,0.4078,92.7033,left
55963,0.0675,0.0186,0.4027,-6.95,15.82,86.35,0.4087,88.0622,left
55983,0.0793,0.0084,0.4020,-8.58,4.20,78.50,0.4098,79.0828,left
56003,0.1061,0.0050,0.4065,-9.28,-2.18,67.18,0.4201,67.8490,left
56023,0.0997,0.0013,0.4281,-9.62,-13.48,56.67,0.4396,59.0418,left
56043,0.1808,-0.0190,0.4255,-8.66,-29.48,40.02,0.4627,50.4508,left
56063,0.2537,-0.0144,0.4192,-4.18,-17.27,22.27,0.4902,28.4925,left
56083,0.2100,0.0052,0.4213,-2.72,0.29,3.98,0.4707,4.8319,left
56103,0.0890,0.0012,0.4385,-0.43,0.35,-6.85,0.4474,6.8772,left
56123,0.0286,0.0122,0.4412,2.34,-17.21,-13.19,0.4423,21.8061,left
56143,0.0311,0.0281,0.4224,3.57,-27.33,-15.15,0.4244,31.4479,left
56163,0.0596,0.0374,0.3856,3.04,-25.48,-14.63,0.3920,29.5369,left
56183,0.0881,0.0425,0.3640,1.33,-13.54,-13.62,0.3769,19.2512,left
56203,0.0779,0.0431,0.3771,0.12,0.37,-14.32,0.3874,14.3258,left
56223,0.0571,0.0334,0.3951,1.10,2.46,-15.22,0.4006,15.4577,left
56243,0.0709,0.0295,0.4009,2.08,-2.53,-16.55,0.4082,16.8708,left
56263,0.0989,0.0299,0.3862,1.62,-4.12,-20.00,0.3998,20.4844,left
56283,0.1252,0.0327,0.3993,0.69,-1.56,-26.15,0.4198,26.2080,left
56303,0.1207,0.0204,0.3982,-1.19,-4.43,-35.50,0.4166,35.7911,left
56323,0.1503,0.0143,0.3857,-2.73,-8.20,-45.60,0.4142,46.4147,left
56343,0.1658,0.0205,0.3749,-6.11,-4.23,-55.50,0.4104,55.9911,left
56363,0.1490,0.0265,0.3792,-11.08,-1.01,-63.53,0.4083,64.4943,left
56383,0.1140,0.0110,0.3842,-15.02,-4.78,-70.69,0.4009,72.4236,left
56403,0.0854,0.0035,0.4054,-17.48,-14.90,-77.54,0.4143,80.8726,left
56423,0.1022,0.0059,0.3826,-20.89,-25.07,-83.37,0.3960,89.5314,left
56443,0.1326,0.0001,0.3882,-24.40,-24.75,-89.80,0.4102,96.2912,left
56463,0.1210,-0.0095,0.4065,-27.65,-23.88,-94.73,0.4242,101.5329,left
56483,0.1305,-0.0165,0.3914,-31.22,-22.76,-97.42,0.4129,104.8025,left
56503,0.1545,-0.0209,0.3838,-32.95,-14.37,-100.58,0.4143,106.8093,left
56523,0.1187,-0.0289,0.4209,-33.83,-7.91,-104.98,0.4383,110.5773,left
56543,0.0992,-0.0405,0.4412,-34.56,-18.24,-107.91,0.4540,114.7685,left
56563,0.1180,-0.0592,0.4451,-32.90,-27.34,-113.02,0.4642,120.8483,left
56583,0.1151,-0.0684,0.4502,-29.25,-26.76,-116.08,0.4697,122.6608,left
56603,0.1016,-0.0583,0.4537,-29.05,-29.77,-118.50,0.4686,125.5929,left
56623,0.1361,-0.0624,0.4332,-28.72,-35.86,-122.23,0.4584,130.5785,left
56643,0.1497,-0.0752,0.4214,-27.65,-26.64,-127.18,0.4535,132.8452,left
56663,0.1233,-0.0735,0.4332,-25.36,-15.63,-126.84,0.4564,130.2912,left
56683,0.1547,-0.0648,0.4219,-23.68,-3.66,-126.03,0.4540,128.2881,left
56703,0.1327,-0.0773,0.4396,-21.36,15.97,-126.15,0.4656,128.9408,left
56723,0.0328,-0.0850,0.4537,-19.24,16.37,-122.52,0.4628,125.0953,left
56743,0.0013,-0.0696,0.4382,-16.53,-0.70,-117.44,0.4437,118.5955,left
56763,0.0564,-0.0548,0.4363,-14.78,-8.84,-113.47,0.4433,114.7650,left
56783,0.0344,-0.0698,0.4510,-12.05,0.90,-109.48,0.4577,110.1453,left
56803,-0.0040,-0.0631,0.4470,-6.99,4.06,-101.74,0.4515,102.0613,left
56823,0.0159,-0.0271,0.4283,-4.61,3.34,-92.52,0.4295,92.6942,left
56843,0.0139,-0.0084,0.4075,-5.79,5.21,-84.17,0.4078,84.5271,left
56863,-0.0111,0.0005,0.4176,-8.24,1.27,-73.94,0.4178,74.4079,left
56883,-0.0295,-0.0197,0.4324,-9.07,-6.55,-64.38,0.4338,65.3463,left
56903,0.0026,-0.0165,0.4182,-8.12,-11.31,-55.60,0.4185,57.3206,left
56923,0.0392,-0.0001,0.4008,-7.69,-0.43,-46.92,0.4027,47.5448,left
56943,0.0052,0.0033,0.4175,-6.72,9.05,-37.05,0.4175,38.7304,left
56963,-0.0261,0.0046,0.4309,-6.53,7.10,-26.64,0.4317,28.3346,left
56983,-0.0267,-0.0044,0.4323,-6.20,-3.18,-17.21,0.4331,18.5622,left
57003,0.0186,0.0011,0.4160,-5.69,-8.58,-10.47,0.4164,14.6880,left
57023,0.0560,0.0057,0.4148,-3.44,-4.92,-3.86,0.4186,7.1335,left
57043,0.0756,-0.0071,0.4249,-3.31,2.79,0.37,0.4317,4.3492,left
57063,0.0640,-0.0076,0.4255,-1.95,5.88,3.37,0.4304,7.0535,left
57083,0.0682,-0.0089,0.4348,-0.40,3.74,4.47,0.4402,5.8446,left
57103,0.0798,-0.0151,0.4402,2.61,-0.26,4.21,0.4476,4.9637,left
57123,0.0881,-0.0123,0.4336,4.89,-2.99,2.99,0.4426,6.4635,left
57143,0.1073,-0.0057,0.4141,5.89,-1.30,1.77,0.4278,6.2888,left
57163,0.1110,-0.0071,0.4078,6.05,4.76,1.59,0.4227,7.8589,left
57183,0.0999,-0.0051,0.4071,5.47,7.27,1.94,0.4192,9.2976,left
57203,0.0865,-0.0062,0.4138,4.43,5.60,2.76,0.4228,7.6572,left
57223,0.0807,-0.0024,0.4099,3.59,3.95,3.13,0.4178,6.1890,right
57243,0.0795,0.0000,0.4089,2.37,1.63,3.97,0.4166,4.9015,right
57263,0.0837,-0.0009,0.4072,1.21,-1.40,5.22,0.4157,5.5399,right
57283,0.0903,-0.0042,0.4135,0.08,-1.86,5.40,0.4232,5.7170,right
57303,0.0867,-0.0028,0.4130,-0.50,-1.66,6.11,0.4220,6.3496,right
57323,0.0933,-0.0095,0.4115,-0.87,-3.11,7.02,0.4220,7.7317,right
57343,0.0985,-0.0128,0.4113,-1.57,-2.95,6.96,0.4231,7.7215,right
57363,0.1010,-0.0122,0.4209,-1.08,-1.08,5.88,0.4330,6.0745,right
57383,0.0936,-0.0096,0.4149,-0.90,-1.04,4.52,0.4255,4.7235,right
57403,0.0887,-0.0156,0.4194,-0.26,-2.78,3.69,0.4290,4.6302,right
57423,0.0914,-0.0167,0.4216,0.20,-3.34,2.89,0.4318,4.4209,right
57443,0.0911,-0.0249,0.4199,1.34,-2.89,2.47,0.4304,4.0309,right
57463,0.0863,-0.0237,0.4198,2.24,-1.89,2.11,0.4292,3.6138,right
57483,0.0867,-0.0154,0.4142,2.11,-2.08,2.21,0.4234,3.6947,right
57503,0.0880,-0.0172,0.4187,2.24,-2.44,2.14,0.4282,3.9462,right
57523,0.0867,-0.0153,0.4211,2.58,-3.16,2.69,0.4302,4.8852,right
57543,0.0885,-0.0116,0.4152,2.76,-2.90,3.19,0.4246,5.1217,right
57563,0.0839,-0.0135,0.4181,1.83,-2.43,3.74,0.4266,4.8208,right
57583,0.0854,-0.0170,0.4132,1.63,-4.27,3.83,0.4223,5.9689,right
57603,0.0874,-0.0188,0.4192,2.11,-5.80,4.18,0.4286,7.4563,right
57623,0.0934,-0.0192,0.4094,2.24,-5.15,3.54,0.4204,6.6373,right
57643,0.0931,-0.0121,0.4070,1.85,-3.07,4.26,0.4177,5.5654,right
57663,0.0891,-0.0178,0.4128,1.51,-2.69,4.87,0.4227,5.7640,right
57683,0.0945,-0.0135,0.4080,1.85,-3.37,4.12,0.4190,5.6382,right
57703,0.0997,-0.0165,0.4087,1.50,-2.79,2.92,0.4210,4.3067,right
57723,0.0992,-0.0153,0.4059,1.04,-1.92,2.70,0.4181,3.4757,right
57743,0.0955,-0.0168,0.4056,0.56,-1.47,3.15,0.4171,3.5155,right
57763,0.0924,-0.0139,0.4081,-0.17,-0.92,3.60,0.4186,3.7215,right
57783,0.0967,-0.0157,0.4133,-0.53,-1.51,3.86,0.4248,4.1821,right
57803,0.0959,-0.0170,0.4067,-1.36,-2.55,3.34,0.4182,4.4188,right
57823,0.1078,-0.0105,0.4067,-1.92,-3.48,1.92,0.4209,4.4179,right
57843,0.1113,-0.0112,0.4047,-2.96,-5.50,0.44,0.4198,6.2591,right
57863,0.1122,-0.0128,0.4093,-3.48,-6.69,-1.25,0.4246,7.6420,right
57883,0.1101,-0.0172,0.4194,-3.69,-10.24,-3.13,0.4340,11.3310,right
57903,0.1173,-0.0249,0.4243,-3.28,-14.79,-5.73,0.4409,16.1991,right
57923,0.1287,-0.0216,0.4156,-3.24,-16.47,-8.69,0.4356,18.9026,right
57943,0.1444,-0.0250,0.4148,-3.53,-13.74,-12.08,0.4399,18.6300,right
57963,0.1639,-0.0271,0.4175,-3.02,-14.17,-16.87,0.4493,22.2368,right
57983,0.1925,-0.0193,0.4005,-2.92,-12.08,-23.24,0.4448,26.3492,right
58003,0.1996,-0.0112,0.3999,-4.73,-6.92,-30.56,0.4471,31.6930,right
58023,0.1935,-0.0266,0.4141,-5.31,-3.86,-38.29,0.4578,38.8494,right
58043,0.1891,-0.0358,0.4166,-4.61,-6.46,-47.08,0.4589,47.7479,right
58063,0.2069,-0.0328,0.4099,-4.35,-7.02,-56.73,0.4603,57.3312,right
58083,0.2145,-0.0396,0.3965,-4.26,1.15,-64.96,0.4525,65.1114,right
58103,0.2052,-0.0406,0.4022,-3.89,14.50,-70.99,0.4534,72.5633,right
58123,0.1780,-0.0315,0.4067,-3.39,24.49,-75.47,0.4451,79.4118,right
58143,0.1665,-0.0269,0.4027,-5.48,25.79,-79.88,0.4366,84.1157,right
58163,0.1476,-0.0392,0.3994,-7.18,23.11,-86.26,0.4276,89.5906,right
58183,0.1102,-0.0461,0.3938,-8.70,15.51,-91.04,0.4115,92.7593,right
58203,0.1005,-0.0421,0.4003,-9.74,3.97,-95.63,0.4148,96.2103,right
58223,0.1381,-0.0466,0.3865,-11.45,6.35,-98.21,0.4130,99.0827,right
58243,0.1514,-0.0378,0.3700,-13.27,21.66,-99.40,0.4015,102.5993,right
58263,0.1085,-0.0354,0.3771,-16.00,33.83,-98.78,0.3940,105.6306,right
58283,0.0312,-0.0427,0.3992,-19.10,36.17,-93.92,0.4027,102.4429,right
58303,-0.0347,-0.0587,0.4249,-20.38,18.41,-89.85,0.4304,93.9519,right
58323,-0.0520,-0.0616,0.4363,-18.87,-3.82,-88.03,0.4437,90.1112,right
58343,-0.0232,-0.0576,0.4370,-19.02,-17.95,-81.36,0.4414,85.4604,right
58363,0.0238,-0.0651,0.4194,-18.95,-16.52,-74.93,0.4251,79.0351,right
58383,0.0591,-0.0734,0.4083,-16.95,-2.23,-70.47,0.4190,72.5165,right
58403,0.0281,-0.0792,0.4216,-13.21,13.83,-65.37,0.4299,68.1138,right
58423,-0.0070,-0.0635,0.4288,-10.49,11.19,-60.96,0.4336,62.8617,right
58443,-0.0438,-0.0581,0.4342,-10.26,-4.23,-55.07,0.4403,56.1757,right
58463,-0.0138,-0.0592,0.4136,-9.92,-22.60,-49.95,0.4180,55.7176,right
58483,0.0557,-0.0557,0.4082,-8.03,-21.07,-46.44,0.4157,51.6266,right
58503,0.0828,-0.0508,0.4003,-6.72,-3.44,-44.05,0.4119,44.6873,right
58523,0.0432,-0.0444,0.4103,-6.75,9.28,-39.33,0.4149,40.9684,right
58543,0.0054,-0.0415,0.4061,-8.58,7.31,-32.69,0.4083,34.5766,right
58563,0.0211,-0.0514,0.4159,-8.67,0.00,-27.25,0.4196,28.5984,right
58583,0.0415,-0.0443,0.4102,-8.99,-1.37,-23.79,0.4146,25.4664,right
58603,0.0519,-0.0447,0.4181,-9.42,2.92,-19.94,0.4237,22.2440,right
58623,0.0507,-0.0566,0.4229,-7.85,5.30,-18.26,0.4296,20.5684,right
58643,0.0536,-0.0507,0.4253,-5.50,8.44,-16.55,0.4316,19.3747,right
58663,-0.0680,-0.0507,0.4374,-3.34,21.22,-5.57,0.4455,22.1941,right
58683,-0.0839,-0.0479,0.4629,-2.03,0.79,2.05,0.4729,2.9898,right
58703,-0.0012,-0.0483,0.4448,1.74,-20.61,4.76,0.4474,21.2254,right
58723,0.0724,-0.0515,0.4178,2.81,-22.05,5.69,0.4272,22.9421,right
58743,0.0952,-0.0521,0.3984,2.84,-8.47,8.09,0.4130,12.0555,right
58763,0.0806,-0.0590,0.4054,3.10,8.09,11.85,0.4175,14.6778,right
58783,0.0045,-0.0648,0.4279,3.83,12.44,18.60,0.4328,22.7001,right
58803,-0.0514,-0.0643,0.4510,3.89,1.66,28.55,0.4585,28.8619,right
58823,-0.0404,-0.0793,0.4512,5.51,-14.27,36.12,0.4599,39.2295,right
58843,0.0063,-0.0836,0.4448,9.80,-18.78,41.13,0.4527,46.2641,right
58863,0.0243,-0.0704,0.4275,13.68,-14.82,46.21,0.4339,50.4242,right
58883,0.0265,-0.0668,0.4275,15.82,-7.51,52.75,0.4335,55.5784,right
58903,0.0278,-0.0709,0.4355,17.95,1.05,59.15,0.4422,61.8191,right
58923,0.0326,-0.0665,0.4355,21.07,6.32,64.56,0.4418,68.2090,right
58943,0.0271,-0.0640,0.4414,23.31,13.25,69.98,0.4468,74.9464,right
58963,0.0032,-0.0660,0.4575,26.52,13.92,74.56,0.4623,80.3558,right
58983,-0.0099,-0.0697,0.4578,29.86,6.38,78.56,0.4631,84.2908,right
59003,-0.0007,-0.0680,0.4504,34.09,0.12,82.61,0.4555,89.3688,right
59023,0.0275,-0.0491,0.4282,37.44,1.28,86.96,0.4319,94.6858,right
59043,0.0427,-0.0507,0.4275,38.29,12.53,91.85,0.4326,100.2954,right
59063,0.0206,-0.0441,0.4336,39.56,16.20,97.08,0.4363,106.0776,right
59083,0.0049,-0.0231,0.4139,38.79,14.93,102.90,0.4146,110.9796,right
59103,0.0240,-0.0236,0.4133,35.86,16.82,108.41,0.4147,115.4227,right
59123,0.0270,-0.0276,0.4148,34.26,20.87,112.56,0.4166,119.4995,right
59143,0.0288,-0.0104,0.4052,32.67,18.12,115.65,0.4063,121.5340,right
59163,0.0302,0.0132,0.3851,28.53,16.29,118.53,0.3865,123.0039,right
59183,0.0387,0.0189,0.3734,21.82,15.33,120.35,0.3759,123.2693,right
59203,0.0348,0.0016,0.4058,17.80,8.18,120.72,0.4073,122.2971,right
59223,0.0350,-0.0063,0.4077,15.60,-11.69,119.71,0.4093,121.2876,right
59243,0.1057,-0.0107,0.3903,14.82,-22.38,114.78,0.4045,117.8764,right
59263,0.1580,0.0004,0.3700,13.22,-17.42,107.71,0.4023,109.9076,right
59283,0.1667,0.0122,0.3501,10.46,-4.82,99.02,0.3880,99.6904,right
59303,0.1725,0.0044,0.3896,7.10,0.95,91.08,0.4261,91.3651,right
59323,0.1553,0.0012,0.3876,4.70,-0.32,81.71,0.4175,81.8457,right
59343,0.1628,0.0145,0.3679,1.59,-0.90,73.21,0.4026,73.2289,right
59363,0.1945,0.0208,0.3754,-2.47,1.48,63.37,0.4233,63.4396,right
59383,0.1803,0.0051,0.3887,-2.95,5.13,51.13,0.4285,51.4709,right
59403,0.1362,0.0143,0.4102,-3.68,2.20,39.82,0.4324,40.0468,right
59423,0.1484,0.0114,0.4143,-3.53,-3.27,31.83,0.4402,32.1930,right
59443,0.1609,0.0138,0.4185,-2.44,-2.70,21.51,0.4485,21.8177,right
59463,0.1328,0.0149,0.4235,-1.33,-4.03,11.59,0.4441,12.3404,right
59483,0.1162,0.0140,0.4189,-0.56,-8.44,4.50,0.4350,9.5856,right
59503,0.1392,0.0160,0.4148,0.11,-6.96,-0.43,0.4378,6.9758,right
59523,0.1389,0.0219,0.4117,-1.36,2.56,-5.05,0.4351,5.8277,right
59543,0.0852,0.0172,0.4210,-2.38,7.31,-6.23,0.4299,9.8971,right
59563,0.0671,0.0149,0.4208,-2.90,3.19,-6.44,0.4264,7.7527,right
59583,0.0674,0.0178,0.4214,-2.35,1.33,-7.91,0.4271,8.3567,right
59603,0.0439,0.0150,0.4240,-2.95,0.32,-8.14,0.4265,8.6604,right
59623,0.0398,0.0211,0.4313,-2.93,-6.85,-6.73,0.4336,10.0456,right
59643,0.0522,0.0204,0.4281,-2.02,-10.46,-5.45,0.4318,11.9640,right
59663,0.0649,0.0182,0.4282,-0.73,-9.48,-4.60,0.4335,10.5614,right
59683,0.0614,0.0267,0.4196,0.70,-8.03,-3.62,0.4249,8.8360,right
59703,0.0690,0.0261,0.4169,0.64,-6.06,-2.55,0.4233,6.6067,right
59723,0.0736,0.0280,0.4058,0.92,-3.22,-2.08,0.4133,3.9405,right
59743,0.0651,0.0300,0.4093,0.69,0.05,-1.22,0.4155,1.4021,right
59763,0.0547,0.0275,0.4209,0.69,-2.20,-0.69,0.4253,2.4036,right
59783,0.0629,0.0291,0.4152,0.37,-4.95,-0.50,0.4209,4.9856,right
59803,0.0646,0.0197,0.4067,-0.12,-5.56,-0.46,0.4123,5.5774,right
59823,0.0673,0.0190,0.4126,0.09,-5.65,-0.95,0.4185,5.7283,right
59843,0.0752,0.0211,0.4091,0.02,-4.84,-1.42,0.4164,5.0437,right
59863,0.0826,0.0200,0.4127,-1.16,-2.90,-1.65,0.4214,3.5326,stop
59883,0.0802,0.0219,0.4022,-2.02,0.81,-1.51,0.4107,2.6459,stop
59903,0.0723,0.0258,0.4037,-3.60,3.18,-0.96,0.4109,4.8981,stop
59923,0.0631,0.0187,0.4143,-3.92,3.04,-1.74,0.4195,5.2588,stop
59943,0.0479,0.0121,0.4294,-2.67,-0.46,-2.38,0.4323,3.6084,stop
59963,0.0513,0.0127,0.4246,-1.94,-4.85,-2.44,0.4278,5.7704,stop
59983,0.0713,0.0151,0.4240,-0.26,-4.58,-3.05,0.4302,5.5108,stop
60003,0.0642,0.0208,0.4219,0.58,-2.47,-2.37,0.4272,3.4718,stop
60023,0.0591,0.0138,0.4259,1.10,-3.30,-1.45,0.4302,3.7665,stop
60043,0.0706,0.0148,0.4166,1.68,-3.54,-0.63,0.4228,3.9696,stop
60063,0.0797,0.0242,0.4152,2.79,-1.42,-1.51,0.4234,3.4794,stop
60083,0.0638,0.0305,0.4155,2.41,-0.73,-1.53,0.4215,2.9473,stop
60103,0.0590,0.0204,0.4142,2.15,-3.21,-1.40,0.4189,4.1093,stop
60123,0.0656,0.0200,0.4139,2.60,-3.94,-1.27,0.4196,4.8844,stop
60143,0.0765,0.0248,0.4117,2.27,-3.98,-1.56,0.4195,4.8454,stop
60163,0.0723,0.0253,0.4122,1.27,-3.07,-1.54,0.4193,3.6607,stop
60183,0.0754,0.0227,0.4117,0.78,-2.87,-1.24,0.4192,3.2208,stop
60203,0.0775,0.0187,0.4025,-0.11,-0.85,-1.07,0.4103,1.3728,stop
60223,0.0654,0.0193,0.4170,-0.34,-0.66,-1.27,0.4225,1.4661,stop
60243,0.0674,0.0203,0.4146,0.43,-2.87,-1.37,0.4205,3.2108,stop
60263,0.0708,0.0232,0.4197,0.29,-3.54,-1.44,0.4262,3.8327,stop
60283,0.0730,0.0182,0.4182,0.66,-3.33,-2.02,0.4249,3.9458,stop
60303,0.0707,0.0186,0.4227,1.95,-2.12,-2.46,0.4290,3.7900,stop
60323,0.0741,0.0214,0.4150,1.98,-2.27,-2.50,0.4221,3.9221,stop
60343,0.0679,0.0159,0.4218,2.26,-1.89,-2.41,0.4275,3.8090,stop
60363,0.0708,0.0187,0.4199,3.25,-3.33,-2.31,0.4263,5.1929,stop
60383,0.0743,0.0171,0.4177,3.57,-2.53,-2.93,0.4246,5.2705,stop
60403,0.0713,0.0208,0.4159,3.54,-1.27,-3.01,0.4225,4.8164,stop
60423,0.0709,0.0231,0.4102,3.44,-1.69,-3.04,0.4169,4.8890,stop
60443,0.0657,0.0205,0.4069,2.46,-2.20,-2.90,0.4126,4.3920,stop
60463,0.0732,0.0239,0.4087,1.65,-3.95,-3.07,0.4159,5.2699,stop
60483,0.0840,0.0267,0.3971,0.85,-3.07,-3.65,0.4068,4.8438,stop
60503,0.0864,0.0273,0.3912,-1.16,-1.01,-4.73,0.4016,4.9761,stop
60523,0.0834,0.0297,0.3901,-3.79,-0.11,-6.15,0.4000,7.2251,stop
60543,0.0895,0.0236,0.3790,-6.66,-2.23,-7.77,0.3902,10.4721,stop
60563,0.1003,0.0354,0.3517,-11.62,-2.64,-9.42,0.3674,15.1886,stop
60583,0.1136,0.0385,0.3151,-20.72,0.79,-11.10,0.3371,23.5168,stop
60603,0.1144,0.0203,0.3389,-28.02,1.16,-14.53,0.3582,31.5824,stop
60623,0.0944,0.0023,0.3516,-32.58,-1.92,-18.38,0.3640,37.4574,stop
60643,0.0990,-0.0012,0.3219,-40.23,-5.97,-22.00,0.3368,46.2386,stop
60663,0.1221,0.0060,0.2651,-52.34,0.03,-25.91,0.2919,58.3977,stop
60683,0.1118,-0.0013,0.2413,-66.43,11.37,-27.53,0.2660,72.7990,stop
60703,0.0854,-0.0369,0.2731,-78.17,10.81,-29.94,0.2885,84.4003,stop
60723,0.0884,-0.0566,0.2664,-90.08,2.27,-33.51,0.2863,96.1350,stop
60743,0.0967,-0.0823,0.2388,-105.88,-1.39,-35.91,0.2704,111.8100,stop
60763,0.0829,-0.1376,0.2565,-118.61,-0.24,-39.54,0.3026,125.0285,stop
60783,0.1123,-0.1819,0.2703,-124.40,4.56,-44.89,0.3446,132.3259,stop
60803,0.1427,-0.1864,0.2622,-131.98,28.35,-47.65,0.3519,143.1579,stop
60823,0.0575,-0.2075,0.2786,-142.46,50.52,-42.23,0.3521,156.9387,stop
60843,-0.0013,-0.2469,0.2980,-149.59,47.13,-37.30,0.3870,161.2105,stop
60863,-0.0073,-0.2798,0.3091,-155.07,36.41,-39.36,0.4170,164.0770,stop
60883,-0.0278,-0.3121,0.3181,-158.60,29.59,-39.45,0.4465,166.0851,stop
60903,-0.0258,-0.3351,0.3129,-160.69,25.44,-36.26,0.4592,166.6794,stop
60923,-0.0066,-0.3416,0.3168,-162.35,20.98,-33.77,0.4659,167.1479,stop
60943,-0.0190,-0.3730,0.3232,-163.57,19.28,-28.55,0.4940,167.1612,stop
60963,-0.0096,-0.4014,0.3140,-163.31,12.89,-25.08,0.5097,165.7298,stop
60983,0.0004,-0.4253,0.3101,-159.08,14.46,-22.49,0.5263,161.3148,stop
61003,-0.0074,-0.4379,0.3090,-155.86,18.60,-19.59,0.5359,158.1854,stop
61023,-0.0083,-0.4604,0.3265,-152.85,15.62,-17.08,0.5645,154.5977,stop
61043,-0.0277,-0.4838,0.3379,-147.30,4.60,-13.95,0.5907,148.0285,stop
61063,-0.0354,-0.5001,0.3312,-138.79,-8.85,-8.75,0.6009,139.3509,stop
61083,-0.0085,-0.4788,0.2555,-133.83,-16.24,-7.80,0.5427,135.0398,stop
61103,0.0111,-0.4990,0.2090,-138.55,-11.77,-5.24,0.5411,139.1473,stop
61123,0.0084,-0.5564,0.2570,-117.30,-9.59,1.01,0.6129,117.6932,stop
61143,0.0177,-0.5802,0.2903,-95.45,-17.82,2.31,0.6490,97.1264,stop
61163,0.0514,-0.5653,0.2782,-82.53,-24.06,-0.56,0.6321,85.9719,stop
61183,0.0742,-0.5397,0.2343,-71.02,-17.73,-0.40,0.5930,73.2024,stop
61203,0.0869,-0.5338,0.2085,-58.69,-3.19,3.79,0.5796,58.8955,stop
61223,0.0609,-0.5078,0.1566,-49.45,8.76,10.27,0.5349,51.2612,stop
61243,0.0376,-0.5114,0.1460,-43.51,9.01,13.97,0.5331,46.5782,stop
61263,0.0469,-0.5447,0.1989,-30.98,-0.20,8.11,0.5817,32.0210,stop
61283,0.0480,-0.5455,0.2097,-18.60,-11.40,1.11,0.5864,21.8425,stop
61303,0.0803,-0.5222,0.1768,-9.77,-14.76,-2.92,0.5571,17.9425,stop
61323,0.0911,-0.5090,0.1583,-6.12,-10.47,-4.64,0.5408,12.9889,stop
61343,0.0979,-0.5067,0.1528,-0.79,-3.56,-3.85,0.5382,5.2996,stop
61363,0.0679,-0.4989,0.1356,4.52,1.69,-0.44,0.5214,4.8466,stop
61383,0.0540,-0.5037,0.1309,7.68,0.23,0.27,0.5232,7.6877,stop
61403,0.0620,-0.5038,0.1145,11.11,-1.22,-4.02,0.5203,11.8805,stop
61423,0.0729,-0.4960,0.1218,14.93,0.11,-5.77,0.5159,16.0081,stop
61443,0.0670,-0.4941,0.1295,18.35,1.57,-1.73,0.5152,18.4990,stop
61463,0.0577,-0.5010,0.1353,20.99,3.07,0.52,0.5221,21.2218,stop
61483,0.0564,-0.5062,0.1414,25.19,2.58,-1.57,0.5286,25.3714,stop
61503,0.0510,-0.5024,0.1493,29.82,0.40,-4.03,0.5266,30.0906,stop
61523,0.0378,-0.5228,0.1813,35.42,-5.47,-3.92,0.5547,36.0532,stop
61543,0.0596,-0.5355,0.1814,42.21,-10.35,-6.69,0.5685,43.9757,stop
61563,0.0673,-0.5474,0.1957,53.56,-10.84,-10.58,0.5852,55.6580,stop
61583,0.0927,-0.5488,0.2092,68.00,-5.60,-12.90,0.5946,69.4394,stop
61603,0.0884,-0.5399,0.2244,80.14,4.93,-11.91,0.5913,81.1673,stop
61623,0.0656,-0.5399,0.2632,91.47,9.36,-7.95,0.6042,92.2866,stop
61643,0.0581,-0.5576,0.2919,103.33,3.54,-6.66,0.6321,103.6030,stop
61663,0.0686,-0.5540,0.2727,115.22,0.09,-11.11,0.6212,115.7562,stop
61683,0.0614,-0.5317,0.2524,126.79,3.19,-15.77,0.5918,127.8108,stop
61703,0.0576,-0.5193,0.2729,138.06,4.96,-15.02,0.5895,138.9646,stop
61723,0.0356,-0.5114,0.2867,147.76,6.55,-10.08,0.5873,148.2437,stop
61743,0.0192,-0.5020,0.3007,156.67,6.72,-5.53,0.5854,156.9131,stop
61763,0.0226,-0.4772,0.2965,165.77,5.54,-4.56,0.5622,165.9264,stop
61783,0.0242,-0.4446,0.3119,174.35,6.08,-3.80,0.5436,174.4984,stop
61803,0.0209,-0.4087,0.3230,179.31,-0.21,-1.95,0.5213,179.3237,stop
61823,0.0006,-0.3854,0.3264,180.31,-7.42,2.55,0.5050,180.4760,stop
61843,-0.0197,-0.3605,0.3193,180.90,-17.13,6.89,0.4820,181.8404,stop
61863,0.0237,-0.3363,0.3115,182.75,-26.43,2.79,0.4590,184.6702,stop
61883,0.0564,-0.2853,0.2841,182.75,-24.53,0.27,0.4065,184.3878,stop
61903,0.0608,-0.2383,0.2855,179.02,-16.37,5.71,0.3768,179.8601,stop
61923,0.0564,-0.1906,0.2800,170.23,-11.42,12.96,0.3434,171.1033,stop
61943,0.0332,-0.1515,0.2666,158.00,-12.60,17.13,0.3084,159.4242,stop
61963,0.0444,-0.1241,0.2744,144.84,-18.21,17.77,0.3044,147.0581,stop
61983,0.0732,-0.0964,0.2706,132.24,-21.24,17.60,0.2965,135.0904,stop
62003,0.0641,-0.0564,0.2598,119.40,-21.60,19.28,0.2734,122.8656,stop
62023,0.0511,-0.0226,0.2583,103.92,-25.37,22.72,0.2643,109.3621,stop
62043,0.0645,-0.0103,0.2623,89.39,-32.85,23.86,0.2703,98.1800,stop
62063,0.1050,0.0032,0.2710,77.39,-33.92,21.65,0.2906,87.2273,stop
62083,0.1167,0.0028,0.3053,68.00,-31.18,18.79,0.3269,77.1306,stop
62103,0.0957,0.0090,0.3270,61.07,-30.61,18.75,0.3409,70.8371,stop
62123,0.1251,0.0225,0.3217,55.56,-33.73,15.48,0.3459,66.8106,stop
62143,0.1716,0.0325,0.3148,50.87,-27.63,9.22,0.3600,58.6211,stop
62163,0.1788,0.0496,0.3149,45.40,-12.29,6.81,0.3655,47.5288,stop
62183,0.1510,0.0621,0.3336,39.39,-0.96,7.71,0.3714,40.1483,stop
62203,0.1333,0.0652,0.3507,32.90,0.89,6.43,0.3808,33.5344,stop
62223,0.1138,0.0681,0.3500,26.67,-2.70,5.25,0.3743,27.3179,stop
62243,0.1226,0.0756,0.3419,19.82,-5.39,4.81,0.3710,21.0921,stop
62263,0.1355,0.0792,0.3470,13.54,-5.31,3.88,0.3809,15.0549,stop
62283,0.1395,0.0790,0.3551,8.18,-4.31,3.31,0.3896,9.8223,stop
62303,0.1368,0.0709,0.3718,4.12,-2.18,3.28,0.4025,5.7038,stop
62323,0.1287,0.0746,0.3811,1.24,-2.17,3.13,0.4091,4.0031,stop
62343,0.1404,0.0740,0.3810,-1.31,-1.36,1.85,0.4127,2.6425,stop
62363,0.1400,0.0696,0.3890,-3.74,2.78,1.21,0.4193,4.8132,stop
62383,0.1219,0.0618,0.4088,-4.20,2.38,0.32,0.4311,4.8376,stop
