time_ms,ax,ay,az,gx,gy,gz,acc_mag,gyro_mag,label
20863,0.0747,0.0182,0.4147,0.95,-1.82,-1.05,0.4217,2.3036,idle
20883,0.0682,0.0171,0.4169,1.10,-1.50,-0.49,0.4228,1.9198,idle
20903,0.0707,0.0154,0.4141,1.16,-1.88,-0.40,0.4203,2.2428,idle
20923,0.0725,0.0159,0.4106,0.84,-1.62,-0.66,0.4173,1.9378,idle
20943,0.0658,0.0125,0.4087,0.72,-1.59,-0.63,0.4141,1.8514,idle
20963,0.0663,0.0149,0.4126,0.67,-2.81,-0.50,0.4182,2.9320,idle
20983,0.0764,0.0125,0.4139,0.70,-2.76,-0.79,0.4211,2.9597,idle
21003,0.0771,0.0129,0.4153,0.34,-1.36,-0.38,0.4226,1.4508,idle
21023,0.0680,0.0186,0.4105,0.06,-0.76,0.15,0.4165,0.7809,idle
21043,0.0657,0.0165,0.4204,0.53,-2.52,0.09,0.4258,2.5768,idle
21063,0.0702,0.0205,0.4127,0.53,-3.86,-0.11,0.4191,3.9008,idle
21083,0.0774,0.0193,0.4130,0.26,-2.92,-0.14,0.4206,2.9308,idle
21103,0.0739,0.0161,0.4170,-0.06,-1.98,0.08,0.4238,1.9871,idle
21123,0.0745,0.0160,0.4148,0.03,-0.90,0.26,0.4217,0.9379,idle
21143,0.0731,0.0161,0.4138,-0.09,-1.42,0.05,0.4205,1.4235,idle
21163,0.0707,0.0143,0.4193,-0.21,-1.91,-0.06,0.4255,1.9213,idle
21183,0.0739,0.0142,0.4203,0.18,-2.70,-0.31,0.4270,2.7257,idle
21203,0.0732,0.0176,0.4147,0.21,-2.41,-0.66,0.4215,2.5091,idle
21223,0.0729,0.0144,0.4169,0.38,-1.66,-0.99,0.4234,1.9748,idle
21243,0.0757,0.0194,0.4144,0.55,-1.80,-1.22,0.4217,2.2448,idle
21263,0.0748,0.0166,0.4155,0.53,-1.33,-1.31,0.4225,1.9426,idle
21283,0.0660,0.0161,0.4171,0.73,-1.13,-1.40,0.4226,1.9458,idle
21303,0.0686,0.0162,0.4199,0.89,-2.27,-1.53,0.4258,2.8792,idle
21323,0.0699,0.0183,0.4139,0.82,-2.37,-1.18,0.4202,2.7680,idle
21343,0.0663,0.0175,0.4113,0.89,-2.03,-0.64,0.4169,2.3062,idle
21363,0.0732,0.0188,0.4100,0.84,-1.86,-0.64,0.4169,2.1414,idle
21383,0.0782,0.0165,0.4147,0.31,-0.64,-0.70,0.4223,0.9988,idle
21403,0.0696,0.0142,0.4153,-0.20,-0.15,-0.79,0.4213,0.8324,idle
21423,0.0676,0.0107,0.4156,-0.46,-1.51,-0.89,0.4213,1.8106,idle
21443,0.0742,0.0156,0.4139,0.55,-4.12,-1.47,0.4208,4.4093,idle
21463,0.0809,0.0148,0.4152,-0.09,-3.69,-1.98,0.4232,4.1950,idle
21483,0.0748,0.0154,0.4115,-0.32,-2.18,-1.63,0.4185,2.7455,idle
21503,0.0743,0.0116,0.4116,0.14,-1.54,-1.59,0.4184,2.2176,idle
21523,0.0660,0.0129,0.4150,0.93,-1.44,-1.65,0.4205,2.3760,idle
21543,0.0596,0.0138,0.4218,1.37,-4.43,-0.98,0.4262,4.7376,idle
21563,0.0740,0.0095,0.4114,1.63,-6.05,-0.89,0.4181,6.3249,idle
21583,0.0713,0.0157,0.4132,1.34,-4.03,-0.84,0.4196,4.3307,idle
21603,0.0729,0.0116,0.4191,1.82,-3.01,-0.69,0.4255,3.5803,idle
21623,0.0740,0.0165,0.4128,1.21,-3.11,-0.81,0.4197,3.4365,idle
21643,0.0723,0.0161,0.4099,0.47,-3.56,-0.38,0.4165,3.6088,idle
21663,0.0739,0.0146,0.4106,0.60,-2.92,-0.82,0.4175,3.0883,idle
21683,0.0730,0.0179,0.4159,0.17,-1.88,-0.89,0.4226,2.0829,idle
21703,0.0796,0.0156,0.4119,0.02,-0.79,-1.07,0.4198,1.3314,idle
21723,0.0745,0.0131,0.4175,-0.52,0.64,-1.07,0.4243,1.3501,idle
21743,0.0673,0.0139,0.4215,0.38,-0.38,-0.90,0.4271,1.0501,idle
21763,0.0670,0.0134,0.4237,0.95,-1.83,-0.82,0.4292,2.2208,idle
21783,0.0751,0.0137,0.4153,1.05,-3.04,-0.58,0.4222,3.2675,idle
21803,0.0728,0.0171,0.4100,1.01,-1.80,-0.73,0.4168,2.1904,idle
21823,0.0757,0.0150,0.4155,1.15,-1.89,-0.08,0.4226,2.2138,idle
21843,0.0789,0.0144,0.4114,0.98,-0.89,-0.67,0.4191,1.4799,idle
21863,0.0702,0.0165,0.4164,1.05,-1.27,-0.79,0.4226,1.8291,idle
21883,0.0754,0.0164,0.4130,0.98,-1.86,-1.19,0.4201,2.4170,idle
21903,0.0779,0.0190,0.4121,0.56,-1.47,-1.74,0.4198,2.3444,idle
21923,0.0756,0.0159,0.4133,-0.02,-0.64,-1.76,0.4205,1.8692,idle
21943,0.0800,0.0123,0.4114,-0.63,0.12,-2.47,0.4193,2.5542,idle
21963,0.0728,0.0153,0.4136,-0.87,2.31,-2.52,0.4202,3.5239,idle
21983,0.0643,0.0153,0.4163,-0.78,1.04,-2.29,0.4215,2.6322,idle
22003,0.0624,0.0123,0.4224,-0.49,-0.61,-1.56,0.4271,1.7426,idle
22023,0.0642,0.0117,0.4240,0.49,-1.85,-1.31,0.4289,2.3185,idle
22043,0.0662,0.0139,0.4203,1.34,-3.10,-0.55,0.4257,3.4223,idle
22063,0.0668,0.0110,0.4119,1.42,-3.36,0.44,0.4174,3.6733,idle
22083,0.0665,0.0131,0.4136,1.88,-2.60,0.64,0.4191,3.2671,idle
22103,0.0714,0.0129,0.4183,1.74,-2.40,1.28,0.4246,3.2279,idle
22123,0.0742,0.0137,0.4150,1.44,-1.88,0.66,0.4218,2.4529,idle
22143,0.0745,0.0151,0.4117,0.98,-1.40,0.61,0.4187,1.8167,idle
22163,0.0725,0.0121,0.4133,0.89,-1.65,0.44,0.4198,1.9232,idle
22183,0.0756,0.0153,0.4097,0.69,-1.08,-0.49,0.4169,1.3732,idle
22203,0.0718,0.0140,0.4161,0.60,-1.40,-0.35,0.4225,1.5655,idle
22223,0.0698,0.0127,0.4186,0.72,-1.95,-0.43,0.4246,2.1252,idle
22243,0.0677,0.0173,0.4180,0.81,-2.58,-0.78,0.4238,2.8139,idle
22263,0.0685,0.0178,0.4109,0.35,-2.46,-0.76,0.4169,2.5977,idle
22283,0.0663,0.0134,0.4159,0.52,-2.87,-0.26,0.4214,2.9283,idle
22303,0.0713,0.0171,0.4142,0.87,-2.15,-0.02,0.4206,2.3220,idle
22323,0.0724,0.0144,0.4141,0.76,-1.28,0.32,0.4206,1.5265,idle
22343,0.0720,0.0166,0.4198,0.79,-1.11,0.44,0.4263,1.4382,idle
22363,0.0739,0.0178,0.4172,0.99,-1.16,0.18,0.4241,1.5377,idle
22383,0.0715,0.0175,0.4131,1.08,-1.50,-0.15,0.4196,1.8539,idle
22403,0.0703,0.0160,0.4186,0.61,-2.06,-0.38,0.4247,2.1833,idle
22423,0.0739,0.0144,0.4167,1.02,-2.43,-0.84,0.4235,2.7648,idle
22443,0.0750,0.0146,0.4158,1.45,-2.18,-1.27,0.4227,2.9113,idle
22463,0.0717,0.0165,0.4133,1.31,-2.31,-1.08,0.4198,2.8659,idle
22483,0.0708,0.0132,0.4175,1.39,-3.27,-1.16,0.4236,3.7351,idle
22503,0.0736,0.0193,0.4108,1.21,-3.73,-1.27,0.4178,4.1155,idle
22523,0.0754,0.0129,0.4175,0.98,-3.34,-0.89,0.4244,3.5941,idle
22543,0.0736,0.0137,0.4167,1.08,-3.01,-0.64,0.4234,3.2607,idle
22563,0.0710,0.0167,0.4147,1.34,-3.50,-0.70,0.4210,3.8107,idle
22583,0.0793,0.0160,0.4177,1.50,-4.14,-1.25,0.4255,4.5743,idle
22603,0.0724,0.0173,0.4176,0.81,-2.95,-1.59,0.4242,3.4436,idle
22623,0.0709,0.0155,0.4180,0.82,-2.99,-1.01,0.4242,3.2633,idle
22643,0.0706,0.0199,0.4110,0.21,-2.49,-0.72,0.4175,2.5987,idle
22663,0.0687,0.0159,0.4178,0.29,-2.90,-0.41,0.4238,2.9442,idle
22683,0.0817,0.0083,0.4185,1.10,-3.59,-1.13,0.4264,3.9188,idle
22703,0.0775,0.0159,0.4164,1.33,-2.27,-1.40,0.4238,2.9853,idle
22723,0.0698,0.0167,0.4243,2.26,-2.63,-1.07,0.4303,3.6254,idle
22743,0.0698,0.0197,0.4127,2.46,-2.20,-0.35,0.4190,3.3164,idle
22763,0.0664,0.0160,0.4147,2.12,-2.43,-0.11,0.4203,3.2261,idle
22783,0.0699,0.0160,0.4130,2.05,-3.40,-0.24,0.4192,3.9795,idle
22803,0.0779,0.0165,0.4097,1.45,-2.84,-0.05,0.4173,3.1890,idle
22823,0.0756,0.0175,0.4059,1.21,-0.79,0.23,0.4132,1.4620,idle
22843,0.0748,0.0159,0.4132,1.59,-1.33,0.46,0.4202,2.1202,idle
22863,0.0762,0.0156,0.4152,1.28,-0.99,0.53,0.4224,1.7073,idle
22883,0.0720,0.0172,0.4137,1.24,-0.79,0.46,0.4203,1.5393,idle
22903,0.0774,0.0179,0.4141,0.89,-1.66,0.05,0.4216,1.8856,idle
22923,0.0789,0.0170,0.4093,0.73,-0.20,-0.06,0.4172,0.7617,idle
22943,0.0696,0.0200,0.4166,0.12,-0.31,-0.27,0.4229,0.4286,idle
22963,0.0782,0.0150,0.4161,0.34,-2.18,-0.52,0.4237,2.2691,idle
22983,0.0792,0.0178,0.4092,0.40,-0.73,-0.84,0.4172,1.1831,idle
23003,0.0679,0.0175,0.4110,-0.02,-1.16,-0.40,0.4169,1.2264,idle
23023,0.0887,0.0131,0.4198,0.73,-0.63,-0.69,0.4293,1.1836,idle
23043,0.0757,0.0184,0.4185,1.05,1.30,-1.11,0.4256,2.0090,idle
23063,0.0653,0.0205,0.4268,1.36,-0.89,-0.85,0.4322,1.8334,idle
23083,0.0712,0.0177,0.4169,1.56,-3.44,-1.22,0.4233,3.9644,idle
23103,0.0728,0.0215,0.4115,1.18,-3.36,-1.19,0.4184,3.7525,idle
23123,0.0786,0.0142,0.4121,1.30,-2.47,-1.33,0.4198,3.0928,idle
23143,0.0763,0.0139,0.4149,1.91,0.02,-1.30,0.4221,2.3079,idle
23163,0.0590,0.0187,0.4144,1.88,-0.21,-0.53,0.4190,1.9641,idle
23183,0.0618,0.0132,0.4156,2.49,-3.21,-0.35,0.4204,4.0737,idle
23203,0.0710,0.0200,0.4152,2.37,-4.14,-0.90,0.4217,4.8507,idle
23223,0.0747,0.0195,0.4100,1.88,-2.99,-0.60,0.4172,3.5826,idle
23243,0.0765,0.0188,0.4061,1.62,-0.61,0.37,0.4137,1.7681,idle
23263,0.0710,0.0186,0.4110,1.77,-0.35,0.52,0.4175,1.8786,idle
23283,0.0726,0.0203,0.4103,1.27,-0.56,0.31,0.4172,1.4206,idle
23303,0.0732,0.0135,0.4124,1.05,-0.93,-0.09,0.4190,1.4091,idle
23323,0.0688,0.0189,0.4154,0.72,-0.52,0.05,0.4215,0.8868,idle
23343,0.0721,0.0162,0.4160,0.60,-0.56,0.08,0.4225,0.8243,idle
23363,0.0748,0.0117,0.4130,1.37,-1.45,-0.31,0.4199,2.0211,idle
23383,0.0704,0.0150,0.4199,1.71,-0.34,-0.06,0.4261,1.7437,idle
23403,0.0674,0.0182,0.4159,1.62,-2.46,0.14,0.4217,2.9461,idle
23423,0.0698,0.0242,0.4102,1.33,-2.14,-0.47,0.4168,2.5606,idle
23443,0.0713,0.0201,0.4144,1.07,-2.56,0.26,0.4210,2.7907,idle
23463,0.0746,0.0172,0.4150,1.45,-2.73,0.60,0.4220,3.1506,idle
23483,0.0765,0.0221,0.4114,1.65,-0.46,0.75,0.4190,1.8677,idle
23503,0.0659,0.0193,0.4161,2.03,-0.89,0.95,0.4218,2.4090,idle
23523,0.0638,0.0177,0.4174,1.76,-2.85,1.33,0.4226,3.6052,idle
23543,0.0747,0.0186,0.4163,1.54,-5.02,1.13,0.4233,5.3743,idle
23563,0.0786,0.0199,0.4146,1.69,-3.27,0.38,0.4224,3.7003,idle
23583,0.0695,0.0205,0.4082,1.13,-2.93,0.81,0.4146,3.2440,idle
23603,0.0671,0.0217,0.4154,1.48,-2.72,1.47,0.4214,3.4244,idle
23623,0.0737,0.0197,0.4174,1.80,-3.27,1.56,0.4243,4.0429,idle
23643,0.0718,0.0264,0.4087,1.56,-2.12,1.80,0.4158,3.1897,idle
23663,0.0663,0.0188,0.4167,1.10,-1.71,2.47,0.4224,3.2015,idle
23683,0.0664,0.0201,0.4204,1.59,-2.43,2.69,0.4261,3.9540,idle
23703,0.0693,0.0186,0.4205,2.93,-4.78,2.49,0.4266,6.1336,idle
23723,0.0825,0.0247,0.4092,2.55,-4.32,1.98,0.4181,5.3951,idle
23743,0.0841,0.0192,0.4093,1.73,-2.24,1.31,0.4183,3.1204,idle
23763,0.0839,0.0229,0.4099,1.25,-0.02,-0.09,0.4190,1.2553,idle
23783,0.0778,0.0217,0.4119,0.56,0.24,-1.28,0.4197,1.4225,idle
23803,0.0709,0.0247,0.4127,0.24,-0.35,-1.62,0.4195,1.6739,idle
23823,0.0668,0.0201,0.4139,0.60,-1.27,-0.70,0.4198,1.5664,idle
23843,0.0686,0.0188,0.4135,1.45,-1.73,0.24,0.4195,2.2671,idle
23863,0.0708,0.0215,0.4186,1.83,-0.76,0.67,0.4251,2.0953,idle
23883,0.0708,0.0226,0.4154,1.63,-1.44,1.10,0.4220,2.4365,idle
23903,0.0743,0.0247,0.4089,1.27,-1.28,0.96,0.4164,2.0434,idle
23923,0.0791,0.0200,0.4103,1.48,-1.01,0.40,0.4183,1.8347,idle
23943,0.0850,0.0237,0.4121,1.63,-0.03,-0.58,0.4214,1.7338,idle
23963,0.0774,0.0260,0.4116,0.66,0.73,-0.14,0.4196,0.9934,idle
23983,0.0726,0.0215,0.4160,-0.08,-0.58,-0.89,0.4229,1.0614,idle
24003,0.0767,0.0225,0.4172,0.26,-1.13,-1.15,0.4248,1.6294,idle
24023,0.0669,0.0208,0.4197,0.52,-2.60,-0.93,0.4255,2.8059,idle
24043,0.0710,0.0194,0.4204,0.67,-3.15,-0.67,0.4268,3.2854,idle
24063,0.0759,0.0269,0.4102,0.87,-2.23,-0.11,0.4180,2.3952,idle
24083,0.0714,0.0228,0.4144,1.08,-1.47,0.05,0.4212,1.8235,idle
24103,0.0712,0.0221,0.4133,0.75,-2.49,-0.21,0.4200,2.6073,idle
24123,0.0735,0.0209,0.4132,0.81,-2.17,-0.70,0.4202,2.4182,idle
24143,0.0720,0.0201,0.4111,0.43,-1.24,-0.50,0.4179,1.4021,idle
24163,0.0706,0.0219,0.4122,0.17,-0.37,-0.75,0.4188,0.8498,idle
24183,0.0659,0.0238,0.4208,0.11,-1.31,-0.87,0.4266,1.5788,idle
24203,0.0685,0.0198,0.4152,0.15,-2.17,-0.90,0.4212,2.3526,idle
24223,0.0723,0.0206,0.4175,0.35,-1.40,-1.16,0.4242,1.8554,idle
24243,0.0714,0.0204,0.4138,-0.06,-1.04,-0.99,0.4204,1.4375,forward
24263,0.0739,0.0208,0.4128,0.08,-1.22,-0.73,0.4199,1.4264,forward
24283,0.0740,0.0238,0.4180,0.40,-1.19,-0.64,0.4251,1.4095,forward
24303,0.0707,0.0194,0.4131,0.31,-0.95,-0.20,0.4195,1.0142,forward
24323,0.0704,0.0195,0.4159,0.78,-2.15,-0.49,0.4223,2.3407,forward
24343,0.0701,0.0194,0.4155,1.04,-2.72,-0.50,0.4218,2.9524,forward
24363,0.0719,0.0243,0.4142,0.85,-3.36,-0.67,0.4211,3.5304,forward
24383,0.0746,0.0234,0.4156,0.72,-2.44,-0.79,0.4229,2.6669,forward
24403,0.0721,0.0209,0.4131,0.73,-2.24,-0.82,0.4199,2.5007,forward
24423,0.0730,0.0245,0.4149,0.63,-2.14,-0.93,0.4220,2.4140,forward
24443,0.0758,0.0250,0.4174,0.43,-1.91,-1.25,0.4249,2.3221,forward
24463,0.0745,0.0205,0.4177,0.60,-1.19,-1.28,0.4248,1.8486,forward
24483,0.0691,0.0221,0.4178,0.12,-1.27,-1.04,0.4241,1.6427,forward
24503,0.0665,0.0187,0.4193,0.61,-2.81,-0.92,0.4250,3.0172,forward
24523,0.0709,0.0209,0.4152,1.02,-3.01,-0.82,0.4217,3.2821,forward
24543,0.0730,0.0231,0.4089,1.16,-2.15,-0.40,0.4160,2.4775,forward
24563,0.0680,0.0231,0.4156,1.05,-2.17,0.06,0.4218,2.4111,forward
24583,0.0753,0.0225,0.4127,1.02,-2.90,-0.18,0.4201,3.0813,forward
24603,0.0731,0.0219,0.4141,0.64,-1.76,-0.41,0.4210,1.9141,forward
24623,0.0752,0.0247,0.4147,0.98,-2.43,-0.44,0.4222,2.6539,forward
24643,0.0796,0.0226,0.4083,0.26,-1.69,-0.95,0.4166,1.9584,forward
24663,0.0796,0.0212,0.4137,-0.08,-0.73,-1.33,0.4218,1.5189,forward
24683,0.0741,0.0195,0.4219,-0.03,-1.05,-1.82,0.4288,2.1003,forward
24703,0.0712,0.0209,0.4197,0.34,-3.02,-2.43,0.4262,3.8915,forward
24723,0.0724,0.0189,0.4185,0.76,-2.99,-2.58,0.4251,4.0242,forward
24743,0.0698,0.0237,0.4166,0.90,-2.46,-2.26,0.4231,3.4581,forward
24763,0.0674,0.0194,0.4203,1.51,-2.73,-1.83,0.4261,3.6207,forward
24783,0.0696,0.0242,0.4150,1.92,-2.29,-1.83,0.4215,3.5073,forward
24803,0.0668,0.0239,0.4169,1.44,-2.11,-1.13,0.4229,2.7883,forward
24823,0.0718,0.0212,0.4135,1.53,-2.92,-0.92,0.4202,3.4166,forward
24843,0.0743,0.0215,0.4133,1.68,-2.26,-0.99,0.4205,2.9851,forward
24863,0.0771,0.0194,0.4175,1.86,-0.47,-1.27,0.4250,2.3020,forward
24883,0.0809,0.0168,0.4261,2.11,1.57,-1.25,0.4341,2.9119,forward
24903,0.0985,-0.0010,0.4468,4.41,5.05,-2.12,0.4575,7.0362,forward
24923,0.1218,-0.0093,0.4507,8.24,16.41,-4.50,0.4670,18.9107,forward
24943,0.0645,-0.0076,0.4769,12.58,19.95,-3.24,0.4813,23.8098,forward
24963,0.0328,-0.0140,0.5171,20.73,11.85,-1.42,0.5183,23.9212,forward
24983,0.0248,-0.0128,0.5302,29.95,-4.02,-0.73,0.5309,30.2310,forward
25003,0.0270,0.0054,0.5338,39.95,-14.76,-0.55,0.5345,42.5981,forward
25023,0.0605,-0.0040,0.5498,50.92,-22.12,-1.01,0.5531,55.5234,forward
25043,0.0627,0.0125,0.5271,60.70,-28.90,-0.89,0.5310,67.2369,forward
25063,0.0751,0.0310,0.5151,70.08,-33.31,-2.70,0.5215,77.6386,forward
25083,0.0922,0.0336,0.5328,81.62,-30.24,-5.28,0.5418,87.2019,forward
25103,0.0875,0.0294,0.5544,95.60,-33.47,-5.24,0.5621,101.4264,forward
25123,0.0829,0.0690,0.5183,109.18,-39.88,-4.60,0.5294,116.3214,forward
25143,0.0845,0.0856,0.5059,119.62,-46.18,-5.91,0.5200,128.3602,forward
25163,0.1091,0.0964,0.4741,129.47,-50.24,-7.69,0.4960,139.0865,forward
25183,0.1273,0.1080,0.4512,138.67,-50.15,-11.98,0.4811,147.9486,forward
25203,0.1024,0.1251,0.4159,146.18,-53.48,-13.91,0.4462,156.2792,forward
25223,0.0961,0.1599,0.3716,150.75,-57.19,-16.99,0.4158,162.1250,forward
25243,0.1146,0.1785,0.3341,154.35,-61.07,-19.97,0.3957,167.1898,forward
25263,0.1561,0.1935,0.2854,155.83,-58.00,-24.08,0.3785,168.0098,forward
25283,0.2003,0.2095,0.2318,154.89,-40.98,-29.47,0.3711,162.9014,forward
25303,0.1664,0.2355,0.2277,153.36,-15.05,-31.89,0.3674,157.3617,forward
25323,0.0736,0.2659,0.2125,149.95,-16.60,-27.45,0.3482,153.3466,forward
25343,0.0499,0.2965,0.1704,144.99,-35.39,-24.89,0.3456,151.3092,forward
25363,0.0935,0.3121,0.1217,135.79,-49.24,-27.69,0.3478,147.0685,forward
25383,0.1351,0.3329,0.0842,125.42,-46.34,-30.31,0.3690,137.0969,forward
25403,0.1666,0.3539,0.0438,113.73,-30.03,-30.64,0.3936,121.5489,forward
25423,0.1464,0.3694,0.0165,100.63,-11.65,-30.37,0.3977,105.7516,forward
25443,0.1128,0.3885,0.0302,89.77,2.84,-27.73,0.4057,93.9978,forward
25463,0.1069,0.4095,0.0204,77.91,7.60,-23.28,0.4238,81.6676,forward
25483,0.1187,0.4210,-0.0011,65.01,17.77,-20.24,0.4374,70.3678,forward
25503,0.1132,0.4304,0.0090,52.99,28.31,-18.08,0.4451,62.7386,forward
25523,0.0823,0.4415,0.0200,41.95,28.63,-13.33,0.4496,52.5094,forward
25543,0.0894,0.4473,0.0314,31.21,23.37,-9.22,0.4572,40.0650,forward
25563,0.0977,0.4490,0.0248,19.11,17.34,-7.56,0.4601,26.8937,forward
25583,0.0903,0.4545,0.0392,8.81,13.11,-6.05,0.4650,16.9158,forward
25603,0.0797,0.4595,0.0465,-1.79,4.18,-4.96,0.4686,6.7312,forward
25623,0.0718,0.4620,0.0435,-11.85,-5.40,-3.80,0.4696,13.5654,forward
25643,0.0612,0.4646,0.0394,-19.97,-13.51,-1.42,0.4703,24.1527,forward
25663,0.0809,0.4631,0.0505,-26.75,-16.61,1.37,0.4729,31.5161,forward
25683,0.0997,0.4531,0.0532,-33.48,-12.29,4.35,0.4670,35.9298,forward
25703,0.1119,0.4485,0.0750,-38.61,-1.62,6.99,0.4683,39.2721,forward
25723,0.0850,0.4417,0.0897,-43.68,0.89,8.37,0.4586,44.4822,forward
25743,0.0590,0.4490,0.0942,-49.50,-5.88,10.87,0.4625,51.0155,forward
25763,0.0298,0.4443,0.0863,-57.77,-20.70,13.92,0.4536,62.9281,forward
25783,0.0227,0.4349,0.1071,-67.05,-40.58,17.98,0.4485,80.4137,forward
25803,0.1384,0.3922,0.1178,-73.50,-50.06,17.66,0.4323,90.6632,forward
25823,0.2018,0.3864,0.0946,-81.16,-38.58,13.33,0.4460,90.8464,forward
25843,0.1672,0.3912,0.1019,-89.68,-24.09,12.87,0.4375,93.7467,forward
25863,0.1029,0.3760,0.1245,-96.05,-26.23,14.53,0.4092,100.6181,forward
25883,0.0830,0.3644,0.1327,-104.40,-37.86,17.36,0.3966,112.3994,forward
25903,0.1470,0.3265,0.1554,-111.24,-40.35,18.98,0.3904,119.8413,forward
25923,0.2147,0.2933,0.1533,-119.57,-30.78,15.88,0.3945,124.4870,forward
25943,0.2012,0.2866,0.1720,-124.96,-7.05,14.85,0.3901,126.0392,forward
25963,0.1742,0.2712,0.2228,-126.06,11.04,16.38,0.3918,127.5993,forward
25983,0.1266,0.2688,0.2273,-131.05,13.13,19.37,0.3741,133.1268,forward
26003,0.1504,0.2358,0.2657,-129.19,18.69,21.48,0.3858,132.2910,forward
26023,0.1938,0.2080,0.2546,-130.58,27.91,21.95,0.3817,135.3220,forward
26043,0.2057,0.1875,0.3092,-125.45,50.89,21.21,0.4160,137.0286,forward
26063,0.1372,0.1890,0.2717,-130.66,49.28,21.86,0.3583,141.3430,forward
26083,0.0399,0.1967,0.3145,-131.04,43.92,26.43,0.3730,140.7079,forward
26103,0.0507,0.1542,0.3542,-129.77,25.34,31.63,0.3897,135.9540,forward
26123,0.0835,0.1299,0.3378,-131.08,16.12,38.64,0.3714,137.6084,forward
26143,0.1398,0.0850,0.3898,-126.27,19.76,42.26,0.4227,134.6161,forward
26163,0.2170,0.0198,0.4218,-118.32,25.69,37.68,0.4747,126.8058,forward
26183,0.1743,0.0160,0.4434,-110.87,36.67,36.27,0.4767,122.2820,forward
26203,0.0441,0.0555,0.4524,-106.12,25.53,41.53,0.4579,116.7818,forward
26223,-0.0077,0.0525,0.4696,-101.34,0.20,48.63,0.4726,112.4056,forward
26243,0.1925,-0.0497,0.4865,-90.32,-13.82,38.61,0.5255,99.1943,forward
26263,0.2538,-0.0659,0.4564,-82.73,8.18,31.27,0.5264,88.8219,forward
26283,0.2021,-0.0602,0.5001,-75.05,29.77,31.42,0.5428,86.6403,forward
26303,0.1731,-0.0874,0.5568,-59.30,39.71,28.35,0.5896,76.7912,forward
26323,0.1119,-0.0984,0.5547,-46.32,28.11,27.40,0.5744,60.7174,forward
26343,0.0863,-0.0813,0.5515,-33.40,3.91,23.89,0.5641,41.2556,forward
26363,0.1329,-0.0791,0.5264,-25.30,-14.60,16.78,0.5486,33.6827,forward
26383,0.1705,-0.0740,0.4965,-19.16,-18.21,10.60,0.5301,28.4802,forward
26403,0.1693,-0.0619,0.4886,-12.75,-15.04,5.54,0.5208,20.4786,forward
26423,0.1774,-0.0574,0.4705,-7.56,-8.26,1.82,0.5060,11.3416,forward
26443,0.1682,-0.0543,0.4630,-2.06,0.00,-0.82,0.4956,2.2198,forward
26463,0.1561,-0.0505,0.4561,1.80,4.64,-3.01,0.4847,5.8166,forward
26483,0.1239,-0.0444,0.4579,4.90,3.88,-3.89,0.4764,7.3629,forward
26503,0.1108,-0.0405,0.4458,7.73,-4.73,-4.78,0.4612,10.2427,forward
26523,0.1298,-0.0404,0.4263,9.69,-9.30,-6.38,0.4474,14.8714,forward
26543,0.1477,-0.0404,0.4166,9.92,-5.95,-8.61,0.4439,14.4248,forward
26563,0.1365,-0.0414,0.4133,9.83,-2.00,-10.21,0.4372,14.3175,forward
26583,0.1191,-0.0333,0.4148,9.98,-2.32,-10.41,0.4329,14.6114,forward
26603,0.1136,-0.0284,0.3982,9.57,-6.53,-9.25,0.4151,14.8300,forward
26623,0.1256,-0.0284,0.3921,8.69,-6.44,-8.73,0.4127,13.9009,forward
26643,0.1243,-0.0315,0.3883,7.53,-3.94,-8.37,0.4089,11.9232,forward
26663,0.1272,-0.0173,0.3837,4.70,-2.99,-8.84,0.4046,10.4502,forward
26683,0.1161,-0.0222,0.3904,3.71,-2.55,-7.76,0.4079,8.9675,forward
26703,0.1195,-0.0168,0.3854,2.12,-3.31,-5.80,0.4038,7.0098,forward
26723,0.1178,-0.0212,0.3859,1.02,-3.51,-4.55,0.4040,5.8374,forward
26743,0.1218,-0.0260,0.3953,0.24,-5.11,-3.65,0.4144,6.2874,forward
26763,0.1337,-0.0353,0.4064,0.00,-4.02,-4.05,0.4292,5.7001,forward
26783,0.1406,-0.0366,0.4047,0.00,-0.02,-4.67,0.4300,4.6718,forward
26803,0.1320,-0.0337,0.4052,-0.12,3.86,-4.26,0.4274,5.7514,left
26823,0.1139,-0.0262,0.4034,-0.14,4.75,-3.62,0.4200,5.9712,left
26843,0.1062,-0.0305,0.4138,-0.17,3.76,-3.11,0.4283,4.8820,left
26863,0.1102,-0.0297,0.4142,-0.43,1.62,-3.16,0.4296,3.5762,left
26883,0.1078,-0.0343,0.4121,-0.75,-0.20,-2.38,0.4274,2.5043,left
26903,0.1194,-0.0321,0.4150,-0.21,-1.40,-2.02,0.4331,2.4657,left
26923,0.1157,-0.0295,0.4149,0.09,-1.02,-2.24,0.4318,2.4681,left
26943,0.1228,-0.0283,0.4043,-0.11,-0.93,-1.74,0.4235,1.9768,left
26963,0.1278,-0.0293,0.4044,-0.38,2.02,-1.44,0.4251,2.5033,left
26983,0.1190,-0.0291,0.4088,-0.49,3.33,-2.20,0.4268,4.0186,left
27003,0.1218,-0.0303,0.4136,0.31,4.15,-2.37,0.4322,4.7893,left
27023,0.1178,-0.0276,0.4221,0.61,3.60,-2.26,0.4391,4.2966,left
27043,0.1188,-0.0314,0.4146,1.01,1.88,-2.34,0.4324,3.1620,left
27063,0.1166,-0.0292,0.4147,1.57,0.29,-2.08,0.4317,2.6207,left
27083,0.1188,-0.0232,0.4117,1.44,0.60,-2.41,0.4292,2.8693,left
27103,0.1158,-0.0249,0.4121,1.85,0.75,-2.23,0.4288,2.9901,left
27123,0.1117,-0.0240,0.4214,2.12,-1.07,-1.73,0.4366,2.9363,left
27143,0.1135,-0.0264,0.4111,2.82,-2.43,-1.36,0.4273,3.9644,left
27163,0.1200,-0.0255,0.3982,2.76,-2.09,-0.98,0.4167,3.6008,left
27183,0.1226,-0.0237,0.3984,1.79,-1.39,-0.90,0.4175,2.4356,left
27203,0.1226,-0.0249,0.4064,1.36,-0.38,-1.34,0.4252,1.9486,left
27223,0.1154,-0.0234,0.4153,1.54,-0.72,-1.04,0.4316,1.9926,left
27243,0.1205,-0.0243,0.4055,1.30,-1.30,-0.63,0.4237,1.9391,left
27263,0.1207,-0.0256,0.4116,1.28,-0.96,-1.19,0.4297,1.9970,left
27283,0.1194,-0.0262,0.4065,1.02,-0.58,-1.27,0.4245,1.7288,left
27303,0.1177,-0.0272,0.4100,0.95,0.23,-2.12,0.4275,2.3349,left
27323,0.1163,-0.0240,0.4121,0.50,0.02,-2.21,0.4289,2.2704,left
27343,0.1149,-0.0258,0.4062,0.41,-0.79,-2.24,0.4230,2.4160,left
27363,0.1168,-0.0221,0.4111,0.38,-0.60,-1.76,0.4280,1.8928,left
27383,0.1158,-0.0238,0.4177,1.08,-0.72,-2.27,0.4341,2.6200,left
27403,0.1141,-0.0260,0.4165,1.68,-1.83,-1.73,0.4326,3.0254,left
27423,0.1141,-0.0219,0.4097,2.17,-2.02,-1.21,0.4258,3.1962,left
27443,0.1157,-0.0226,0.4089,2.05,-0.31,-0.90,0.4256,2.2561,left
27463,0.1101,-0.0236,0.4120,2.02,-0.12,-0.17,0.4271,2.0259,left
27483,0.1080,-0.0288,0.4139,2.21,-1.94,-0.67,0.4288,3.0185,left
27503,0.1112,-0.0225,0.4164,2.02,-4.06,-0.38,0.4316,4.5496,left
27523,0.1135,-0.0255,0.4100,2.18,-5.19,-0.40,0.4262,5.6452,left
27543,0.1147,-0.0250,0.4125,2.00,-5.97,-0.56,0.4289,6.3209,left
27563,0.1204,-0.0275,0.4078,1.77,-5.34,-0.73,0.4261,5.6768,left
27583,0.1287,-0.0284,0.4034,2.21,-2.58,-1.33,0.4244,3.6499,left
27603,0.1190,-0.0219,0.4091,2.67,-0.17,-1.36,0.4266,3.0021,left
27623,0.1112,-0.0201,0.4109,2.99,-0.64,-0.47,0.4261,3.0967,left
27643,0.1116,-0.0223,0.3997,2.98,-1.65,-0.35,0.4155,3.4213,left
27663,0.1066,-0.0184,0.4062,2.49,-1.11,-0.05,0.4204,2.7271,left
27683,0.0937,-0.0161,0.4196,2.34,-2.08,1.89,0.4302,3.6540,left
27703,0.0920,-0.0154,0.4164,3.53,-4.35,4.50,0.4267,7.1871,left
27723,0.0902,-0.0186,0.4089,4.03,-5.56,7.71,0.4192,10.3233,left
27743,0.0951,-0.0203,0.4137,4.70,-4.26,9.91,0.4250,11.7657,left
27763,0.0862,-0.0216,0.4208,5.77,-3.53,12.84,0.4301,14.5121,left
27783,0.0807,-0.0219,0.4182,6.14,-6.11,16.24,0.4265,18.4076,left
27803,0.0886,-0.0240,0.4122,6.81,-8.67,18.38,0.4223,21.4348,left
27823,0.0936,-0.0203,0.4106,6.70,-9.69,20.20,0.4217,23.3856,left
27843,0.1095,-0.0234,0.4048,5.92,-6.92,21.62,0.4200,23.4579,left
27863,0.0969,-0.0260,0.4097,5.39,-4.61,24.43,0.4218,25.4363,left
27883,0.0905,-0.0284,0.4163,6.20,-6.50,26.89,0.4269,28.3470,left
27903,0.0917,-0.0288,0.4189,7.95,-7.02,30.31,0.4298,32.1093,left
27923,0.0856,-0.0254,0.4133,9.69,-6.23,34.92,0.4229,36.7684,left
27943,0.0729,-0.0236,0.4238,11.60,-5.69,40.29,0.4307,42.3125,left
27963,0.0670,-0.0266,0.4200,13.82,-7.42,46.24,0.4262,48.8312,left
27983,0.0725,-0.0277,0.4286,16.72,-7.66,52.20,0.4356,55.3434,left
28003,0.0811,-0.0287,0.4252,19.44,-7.95,57.83,0.4338,61.5267,left
28023,0.0790,-0.0220,0.4243,20.56,-10.15,62.23,0.4322,66.3207,left
28043,0.0922,-0.0250,0.4226,22.35,-11.33,65.31,0.4333,69.9549,left
28063,0.1036,-0.0264,0.4181,21.98,-10.15,67.80,0.4316,71.9962,left
28083,0.0963,-0.0247,0.4198,21.63,-12.09,70.12,0.4314,74.3729,left
28103,0.0917,-0.0229,0.4177,20.92,-17.25,71.88,0.4283,76.8214,left
28123,0.1079,-0.0256,0.4167,20.81,-20.70,73.54,0.4313,79.1835,left
28143,0.1342,-0.0338,0.4075,22.49,-18.14,74.44,0.4303,79.8525,left
28163,0.1332,-0.0309,0.4037,22.85,-11.37,75.66,0.4262,79.8547,left
28183,0.1252,-0.0416,0.4243,26.64,-10.58,77.85,0.4444,82.9572,left
28203,0.1401,-0.0254,0.4167,28.06,-12.15,78.20,0.4404,83.9649,left
28223,0.1539,-0.0206,0.4108,27.92,-11.77,77.28,0.4391,83.0112,left
28243,0.1687,-0.0223,0.4027,27.91,-6.18,76.12,0.4372,81.3123,left
28263,0.1710,-0.0244,0.4025,29.30,1.59,75.66,0.4380,81.1538,left
28283,0.1760,-0.0178,0.3961,29.95,7.51,75.94,0.4338,81.9780,left
28303,0.1641,-0.0139,0.3945,29.73,16.26,76.85,0.4275,83.9919,left
28323,0.1379,-0.0148,0.4067,29.68,18.50,77.62,0.4297,85.1344,left
28343,0.1311,-0.0138,0.3976,28.69,14.93,78.61,0.4189,85.0031,left
28363,0.1592,-0.0200,0.3994,28.60,9.15,78.75,0.4304,84.2769,left
28383,0.1693,-0.0161,0.3905,27.60,7.13,76.56,0.4259,81.7003,left
28403,0.1880,-0.0050,0.3853,26.58,9.07,70.09,0.4287,75.5088,left
28423,0.1962,0.0096,0.3713,21.15,12.09,64.14,0.4201,68.6070,left
28443,0.2000,0.0066,0.3795,16.60,16.66,55.83,0.4290,60.5811,left
28463,0.1982,0.0017,0.3802,12.90,18.72,48.46,0.4288,53.5253,left
28483,0.1602,0.0074,0.3933,11.40,16.85,44.31,0.4247,48.7557,left
28503,0.1550,0.0156,0.3938,10.47,7.71,40.64,0.4235,42.6713,left
28523,0.1786,0.0128,0.3868,7.59,2.41,36.32,0.4263,37.1831,left
28543,0.1917,0.0072,0.3855,6.05,3.73,32.99,0.4306,33.7480,left
28563,0.1968,0.0049,0.3793,5.83,10.99,30.52,0.4273,32.9585,left
28583,0.1694,0.0118,0.3940,5.44,12.81,28.27,0.4291,31.5132,left
28603,0.1534,0.0177,0.3977,4.58,5.71,26.06,0.4266,27.0695,left
28623,0.1440,0.0243,0.4048,3.02,-3.37,23.30,0.4303,23.7341,left
28643,0.1582,0.0278,0.4053,2.93,-11.30,19.37,0.4359,22.6182,left
28663,0.2000,0.0183,0.3822,1.82,-10.24,13.76,0.4317,17.2472,left
28683,0.2091,0.0193,0.3844,-0.43,1.37,7.13,0.4380,7.2735,left
28703,0.1840,0.0198,0.4005,-1.47,10.17,1.25,0.4412,10.3490,left
28723,0.1705,0.0107,0.4071,-2.90,10.17,-4.69,0.4415,11.5659,left
28743,0.1559,-0.0035,0.4222,-1.89,6.29,-6.75,0.4501,9.4173,left
28763,0.1345,0.0045,0.4224,-2.09,-2.58,-10.63,0.4433,11.1330,left
28783,0.1381,0.0057,0.4247,-3.24,-13.40,-15.30,0.4466,20.5956,left
28803,0.1650,0.0005,0.4114,-5.24,-18.89,-20.53,0.4432,28.3856,left
28823,0.1862,-0.0070,0.4056,-4.66,-15.60,-25.86,0.4464,30.5616,left
28843,0.1812,-0.0013,0.3989,-3.71,-9.13,-30.73,0.4381,32.2742,left
28863,0.1610,0.0087,0.4126,-2.61,-7.82,-33.37,0.4430,34.3765,left
28883,0.1599,0.0154,0.3973,-3.60,-16.84,-37.63,0.4286,41.3865,left
28903,0.1055,0.0286,0.4259,-5.97,-34.26,-37.60,0.4397,51.2186,left
28923,0.1580,0.0178,0.4127,-5.80,-51.56,-38.14,0.4423,64.3915,left
28943,0.2172,0.0159,0.3789,-6.58,-51.62,-43.50,0.4370,67.8208,left
28963,0.2644,0.0103,0.3468,-10.20,-39.05,-50.60,0.4362,64.7231,left
28983,0.2980,-0.0022,0.3418,-15.71,-13.40,-61.24,0.4535,64.6252,left
29003,0.2445,-0.0076,0.3569,-18.75,9.42,-69.18,0.4327,72.2875,left
29023,0.2052,-0.0082,0.3676,-21.73,12.09,-75.07,0.4210,79.0791,left
29043,0.1902,-0.0114,0.3738,-24.89,7.44,-80.64,0.4195,84.7206,left
29063,0.1921,-0.0205,0.3865,-26.53,5.40,-84.92,0.4321,89.1292,left
29083,0.1923,-0.0259,0.3856,-28.81,6.58,-88.79,0.4317,93.5822,left
29103,0.1877,-0.0236,0.3866,-29.79,9.08,-93.22,0.4304,98.2851,left
29123,0.1625,-0.0184,0.3983,-30.49,11.63,-96.85,0.4306,102.2046,left
29143,0.1293,-0.0203,0.4144,-29.36,13.05,-96.87,0.4346,102.0596,left
29163,0.1222,-0.0135,0.4240,-27.05,5.98,-94.98,0.4414,98.9361,left
29183,0.1581,-0.0217,0.4138,-27.95,0.32,-97.82,0.4435,101.7333,left
29203,0.1469,-0.0260,0.4170,-28.58,2.24,-106.78,0.4429,110.5601,left
29223,0.1532,-0.0103,0.4198,-29.10,4.44,-98.32,0.4470,102.6326,left
29243,0.1350,-0.0251,0.4301,-25.71,11.31,-93.73,0.4514,97.8437,left
29263,0.0862,-0.0341,0.4495,-22.38,5.69,-89.95,0.4589,92.8716,left
29283,0.0957,-0.0291,0.4475,-17.57,-6.31,-84.92,0.4586,86.9441,left
29303,0.1156,-0.0334,0.4341,-14.67,-13.98,-84.34,0.4505,86.7374,left
29323,0.1366,-0.0283,0.4258,-12.67,-13.82,-86.40,0.4481,88.4076,left
29343,0.0879,-0.0281,0.4510,-10.31,-5.19,-81.19,0.4604,82.0067,left
29363,0.0798,-0.0271,0.4539,-4.82,-10.78,-73.31,0.4616,74.2580,left
29383,0.0912,-0.0242,0.4402,-2.03,-17.88,-69.94,0.4502,72.2163,left
29403,0.1278,-0.0356,0.4314,2.69,-20.32,-69.85,0.4513,72.7928,left
29423,0.1617,-0.0200,0.4133,0.81,-10.00,-73.24,0.4443,73.9206,left
29443,0.0946,-0.0171,0.4353,-1.08,2.75,-71.56,0.4458,71.6182,left
29463,0.0679,-0.0212,0.4409,2.72,-7.71,-66.79,0.4466,67.2923,left
29483,0.0956,-0.0090,0.4138,5.53,-19.08,-64.27,0.4248,67.2755,left
29503,0.1332,0.0039,0.3911,3.94,-17.10,-65.08,0.4132,67.4079,left
29523,0.1537,-0.0012,0.3878,-0.87,-1.95,-65.28,0.4172,65.3175,left
29543,0.0946,-0.0052,0.4216,-0.90,10.09,-60.41,0.4321,61.2559,left
29563,0.0585,-0.0015,0.4252,2.43,-1.27,-54.75,0.4292,54.8165,left
29583,0.0959,0.0090,0.4075,6.85,-9.51,-50.60,0.4187,51.9361,left
29603,0.1393,0.0138,0.3855,5.51,-6.50,-49.85,0.4101,50.5711,left
29623,0.1394,0.0215,0.3839,0.92,2.55,-49.88,0.4090,49.9514,left
29643,0.0706,0.0187,0.4271,0.47,6.27,-45.66,0.4333,46.0957,left
29663,0.0754,0.0244,0.4131,3.95,-6.20,-40.09,0.4206,40.7602,left
29683,0.1050,0.0363,0.3889,5.65,-10.05,-35.68,0.4045,37.4946,left
29703,0.1271,0.0370,0.3871,5.04,-4.92,-33.21,0.4091,33.9440,left
29723,0.1088,0.0428,0.3951,4.44,6.03,-29.98,0.4121,30.9061,left
29743,0.0653,0.0487,0.4266,5.07,6.56,-23.89,0.4343,25.2917,left
29763,0.0602,0.0558,0.4194,7.48,-6.76,-17.91,0.4274,20.5528,left
29783,0.0859,0.0629,0.3970,8.21,-14.73,-13.89,0.4110,21.8527,left
29803,0.1278,0.0596,0.3795,7.68,-11.57,-13.15,0.4049,19.1230,left
29823,0.1356,0.0713,0.3755,3.98,-1.45,-12.37,0.4055,13.0732,left
29843,0.1190,0.0643,0.3876,0.99,4.81,-10.90,0.4105,11.9557,left
29863,0.1125,0.0603,0.3920,0.46,5.48,-9.33,0.4122,10.8290,left
29883,0.1233,0.0549,0.3889,0.08,6.98,-8.24,0.4117,10.8006,left
29903,0.1128,0.0568,0.3933,-1.33,11.16,-6.99,0.4131,13.2367,left
29923,0.0854,0.0531,0.4165,-1.74,7.95,-3.48,0.4285,8.8552,left
29943,0.0913,0.0476,0.4224,-0.78,-2.87,-0.98,0.4347,3.1304,left
29963,0.1172,0.0481,0.4069,0.08,-6.38,-0.70,0.4261,6.4207,left
29983,0.1271,0.0515,0.3950,-1.18,-3.53,0.11,0.4181,3.7190,left
30003,0.1232,0.0510,0.3998,-1.83,-1.62,0.75,0.4214,2.5564,left
30023,0.1179,0.0502,0.4094,-1.69,-3.21,1.69,0.4290,4.0029,left
30043,0.1248,0.0493,0.4062,-1.01,-5.62,1.40,0.4278,5.8782,left
30063,0.1493,0.0443,0.4016,-0.76,-2.20,1.25,0.4307,2.6426,left
30083,0.1429,0.0474,0.3995,-1.73,4.89,1.85,0.4270,5.5006,left
30103,0.1105,0.0432,0.4114,-0.63,5.80,2.92,0.4281,6.5232,left
30123,0.1038,0.0492,0.4215,0.70,-0.11,3.63,0.4369,3.7024,left
30143,0.1221,0.0416,0.4080,0.89,-3.73,3.59,0.4279,5.2472,left
30163,0.1333,0.0398,0.4065,1.22,-2.31,3.16,0.4296,4.0980,right
30183,0.1250,0.0444,0.4083,2.67,-0.92,3.80,0.4293,4.7359,right
30203,0.1208,0.0502,0.4058,3.95,-0.76,4.75,0.4263,6.2260,right
30223,0.1255,0.0530,0.4043,3.57,-0.37,5.07,0.4266,6.2120,right
30243,0.1268,0.0524,0.4047,2.41,0.12,4.44,0.4273,5.0568,right
30263,0.1254,0.0494,0.4087,2.05,0.27,3.92,0.4303,4.4335,right
30283,0.1251,0.0520,0.4042,1.91,0.70,3.66,0.4263,4.1906,right
30303,0.1306,0.0453,0.4065,1.92,0.82,3.73,0.4294,4.2728,right
30323,0.1320,0.0472,0.4001,1.80,2.52,3.25,0.4240,4.4907,right
30343,0.1196,0.0498,0.4054,1.53,3.28,3.56,0.4256,5.0754,right
30363,0.1145,0.0466,0.4143,2.27,0.72,3.95,0.4324,4.6179,right
30383,0.1189,0.0479,0.4081,3.19,-1.36,3.97,0.4277,5.2711,right
30403,0.1216,0.0540,0.4037,2.90,-1.68,3.95,0.4250,5.1837,right
30423,0.1215,0.0516,0.3956,2.11,-0.99,3.51,0.4171,4.2135,right
30443,0.1244,0.0503,0.4028,1.62,-0.12,3.08,0.4246,3.4849,right
30463,0.1229,0.0470,0.4015,1.51,1.15,3.74,0.4225,4.1936,right
30483,0.1178,0.0511,0.4086,2.12,0.23,4.52,0.4283,4.9978,right
30503,0.1241,0.0493,0.4075,2.49,-0.87,3.83,0.4288,4.6513,right
30523,0.1338,0.0529,0.4062,1.94,0.76,3.39,0.4310,3.9786,right
30543,0.1262,0.0457,0.4056,1.48,3.54,3.51,0.4273,5.2028,right
30563,0.1166,0.0449,0.4115,2.24,3.77,3.94,0.4300,5.8968,right
30583,0.1206,0.0466,0.4116,3.28,0.95,3.42,0.4315,4.8338,right
30603,0.1300,0.0521,0.4076,3.68,-0.50,2.32,0.4310,4.3792,right
30623,0.1279,0.0509,0.4138,3.21,-0.50,1.39,0.4361,3.5303,right
30643,0.1343,0.0496,0.4122,4.17,-1.19,-0.03,0.4364,4.3348,right
30663,0.1405,0.0477,0.4102,4.58,-1.16,-1.95,0.4362,5.1130,right
30683,0.1492,0.0477,0.4150,4.64,-0.64,-4.21,0.4436,6.3014,right
30703,0.1696,0.0353,0.4222,5.98,2.50,-7.85,0.4564,10.1817,right
30723,0.1655,0.0356,0.4111,6.29,3.30,-12.21,0.4446,14.1285,right
30743,0.1479,0.0381,0.4160,8.21,0.50,-15.69,0.4432,17.7212,right
30763,0.1545,0.0551,0.4091,9.57,-7.45,-21.16,0.4407,24.3906,right
30783,0.1708,0.0587,0.3973,5.60,-11.25,-29.30,0.4365,31.8803,right
30803,0.1959,0.0502,0.3833,2.76,-11.16,-37.10,0.4334,38.8400,right
30823,0.2117,0.0524,0.3818,1.50,-5.18,-45.83,0.4397,46.1476,right
30843,0.2126,0.0494,0.3806,-0.98,1.21,-54.63,0.4388,54.6480,right
30863,0.1958,0.0421,0.3787,-4.90,4.34,-63.91,0.4284,64.2425,right
30883,0.1733,0.0439,0.3909,-7.27,2.20,-72.61,0.4298,73.0066,right
30903,0.1670,0.0422,0.4109,-8.67,-4.66,-81.79,0.4455,82.3764,right
30923,0.1692,0.0457,0.3906,-12.24,-10.98,-90.06,0.4281,91.5501,right
30943,0.1740,0.0443,0.3827,-15.16,-10.58,-97.80,0.4227,99.5335,right
30963,0.1688,0.0314,0.3928,-16.79,-2.70,-104.41,0.4287,105.7887,right
30983,0.1140,0.0365,0.4124,-16.72,0.95,-106.79,0.4294,108.0986,right
31003,0.0775,0.0431,0.4258,-15.94,-6.17,-106.15,0.4349,107.5197,right
31023,0.0760,0.0366,0.4171,-15.91,-17.79,-108.60,0.4256,111.1863,right
31043,0.0746,0.0426,0.3998,-16.38,-19.77,-107.34,0.4089,110.3716,right
31063,0.0806,0.0477,0.4050,-17.86,-14.46,-105.44,0.4157,107.9105,right
31083,0.0588,0.0383,0.4125,-16.85,-9.82,-101.97,0.4184,103.8183,right
31103,0.0508,0.0409,0.4111,-14.43,-6.18,-97.60,0.4163,98.8572,right
31123,0.0391,0.0463,0.4104,-15.01,-6.95,-93.62,0.4148,95.0677,right
31143,0.0345,0.0468,0.4138,-15.36,-11.68,-88.75,0.4179,90.8214,right
31163,0.0387,0.0359,0.4125,-14.98,-14.63,-85.91,0.4158,88.4222,right
31183,0.0396,0.0431,0.4116,-13.16,-8.00,-82.40,0.4158,83.8239,right
31203,0.0350,0.0491,0.4209,-12.50,-2.95,-74.43,0.4252,75.5280,right
31223,0.0327,0.0446,0.4263,-11.59,-4.66,-68.82,0.4298,69.9483,right
31243,0.0266,0.0511,0.4268,-10.35,-8.92,-65.28,0.4306,66.6966,right
31263,0.0002,0.0548,0.4315,-6.24,-10.00,-66.81,0.4350,67.8414,right
31283,0.0059,0.0596,0.4260,-5.39,-26.05,-58.93,0.4302,64.6554,right
31303,0.0658,0.0646,0.3876,-7.50,-19.22,-52.03,0.3984,55.9717,right
31323,0.0754,0.0527,0.4149,-9.19,-11.94,-46.14,0.4250,48.5352,right
31343,0.0679,0.0551,0.4053,-6.49,-1.79,-39.80,0.4146,40.3665,right
31363,0.0544,0.0559,0.3987,-4.78,0.61,-33.77,0.4062,34.1129,right
31383,0.0557,0.0519,0.4136,-3.54,-3.95,-29.69,0.4205,30.1654,right
31403,0.0885,0.0479,0.4108,-2.66,-1.04,-26.75,0.4229,26.8997,right
31423,0.0782,0.0496,0.4050,-2.70,5.83,-22.73,0.4155,23.6241,right
31443,0.0703,0.0505,0.4044,-1.39,9.82,-17.42,0.4136,20.0437,right
31463,0.0616,0.0555,0.4109,-0.44,10.12,-12.67,0.4192,16.2243,right
31483,0.0657,0.0482,0.4127,0.60,10.00,-7.80,0.4207,12.6972,right
31503,0.0574,0.0485,0.4154,1.56,8.12,-2.08,0.4221,8.5267,right
31523,0.0632,0.0469,0.4126,3.62,6.72,1.92,0.4200,7.8688,right
31543,0.0615,0.0571,0.4073,3.53,4.72,5.16,0.4159,7.8308,right
31563,0.0529,0.0538,0.4146,3.18,0.47,8.06,0.4214,8.6769,right
31583,0.0636,0.0536,0.4099,3.25,-3.28,10.20,0.4183,11.1963,right
31603,0.0653,0.0496,0.4030,3.54,-4.81,12.81,0.4112,14.1332,right
31623,0.0658,0.0502,0.4044,3.77,-3.74,16.67,0.4128,17.4974,right
31643,0.0554,0.0574,0.4054,3.31,-2.75,20.38,0.4132,20.8312,right
31663,0.0448,0.0551,0.3979,2.20,-4.12,24.66,0.4042,25.0952,right
31683,0.0459,0.0540,0.4052,1.44,-5.94,28.61,0.4113,29.2558,right
31703,0.0674,0.0518,0.3944,1.28,-4.41,32.38,0.4035,32.7060,right
31723,0.0734,0.0435,0.4027,3.13,10.67,35.57,0.4116,37.2704,right
31743,0.0432,0.0483,0.4178,4.52,13.63,39.74,0.4228,42.2564,right
31763,0.0231,0.0518,0.4198,5.27,4.15,44.00,0.4236,44.5083,right
31783,0.0457,0.0527,0.4031,2.81,-0.75,44.08,0.4091,44.1721,right
31803,0.0621,0.0464,0.3964,0.55,-1.34,44.66,0.4039,44.6801,right
31823,0.0673,0.0480,0.3936,-0.50,8.38,48.76,0.4021,49.4810,right
31843,0.0417,0.0502,0.4124,-0.70,11.45,52.50,0.4175,53.7425,right
31863,0.0245,0.0443,0.4312,-0.14,2.12,55.92,0.4341,55.9641,right
31883,0.0389,0.0369,0.4247,0.79,-5.54,58.64,0.4281,58.9079,right
31903,0.0627,0.0424,0.4178,3.34,-3.05,63.19,0.4246,63.3529,right
31923,0.0752,0.0358,0.4030,5.27,5.76,68.20,0.4115,68.6433,right
31943,0.0573,0.0441,0.4091,5.74,12.78,71.77,0.4154,73.1254,right
31963,0.0552,0.0338,0.4204,5.57,17.47,76.03,0.4254,78.2096,right
31983,0.0320,0.0323,0.4121,4.20,18.72,81.18,0.4146,83.4113,right
32003,-0.0134,0.0320,0.4106,2.09,8.70,86.93,0.4121,87.3908,right
32023,0.0063,0.0242,0.4077,2.37,-9.86,90.26,0.4085,90.8276,right
32043,0.1017,0.0116,0.4016,3.45,-7.95,87.28,0.4144,87.7120,right
32063,0.1241,0.0237,0.3942,1.66,12.20,87.30,0.4139,88.1616,right
32083,0.0822,0.0162,0.4276,0.46,25.95,92.21,0.4357,95.7977,right
32103,0.0533,0.0193,0.4131,2.02,26.26,95.31,0.4170,98.8847,right
32123,0.0228,0.0273,0.4111,1.60,20.12,95.37,0.4127,97.4868,right
32143,0.0414,0.0215,0.4238,0.93,12.31,97.10,0.4264,97.8803,right
32163,0.0804,-0.0042,0.4211,-0.50,11.77,96.89,0.4288,97.5992,right
32183,0.0731,0.0024,0.4097,-0.56,10.34,97.04,0.4161,97.5887,right
32203,0.0853,0.0060,0.4255,1.68,8.49,96.69,0.4340,97.0735,right
32223,0.1132,-0.0012,0.4315,2.53,16.40,93.13,0.4461,94.5962,right
32243,0.0850,0.0072,0.4222,2.09,24.82,94.29,0.4308,97.5256,right
32263,0.0618,-0.0007,0.4272,2.99,16.44,95.04,0.4317,96.4965,right
32283,0.0651,-0.0022,0.4272,5.13,3.18,91.34,0.4322,91.5425,right
32303,0.0980,0.0031,0.4327,5.47,-1.07,86.24,0.4437,86.4239,right
32323,0.1309,-0.0039,0.4240,5.18,3.86,81.63,0.4437,81.8886,right
32343,0.1078,0.0081,0.4130,5.54,7.21,78.38,0.4269,78.9071,right
32363,0.0823,0.0288,0.4099,5.15,3.34,74.40,0.4191,74.6496,right
32383,0.0912,0.0243,0.4102,2.20,-3.37,70.15,0.4209,70.2682,right
32403,0.1191,0.0142,0.4072,2.09,-0.92,65.86,0.4245,65.9022,right
32423,0.1229,0.0140,0.4049,1.08,4.70,61.16,0.4234,61.3504,right
32443,0.1139,0.0149,0.4110,0.27,9.07,56.73,0.4268,57.4537,right
32463,0.1036,0.0112,0.4152,0.41,12.49,53.08,0.4280,54.5348,right
32483,0.0969,0.0190,0.4183,1.74,12.61,50.82,0.4298,52.3945,right
32503,0.0897,0.0199,0.4291,1.25,9.42,47.25,0.4388,48.1980,right
32523,0.0756,0.0162,0.4364,1.07,1.98,44.34,0.4432,44.3931,right
32543,0.0867,0.0186,0.4326,2.37,-7.57,40.78,0.4416,41.5432,right
32563,0.0964,0.0226,0.4202,2.60,-9.31,37.07,0.4317,38.3087,right
32583,0.0955,0.0248,0.4220,2.96,-7.53,36.46,0.4334,37.3445,right
32603,0.0966,0.0221,0.4175,4.47,-6.24,34.76,0.4291,35.6019,right
32623,0.0897,0.0242,0.4178,4.90,-3.94,32.69,0.4281,33.2862,right
32643,0.0939,0.0222,0.4180,5.88,-3.92,31.07,0.4290,31.8623,right
32663,0.1091,0.0309,0.4136,5.88,-0.87,28.03,0.4288,28.6534,right
32683,0.1093,0.0249,0.4149,5.24,1.31,24.15,0.4298,24.7487,right
32703,0.1019,0.0260,0.4121,4.26,1.44,20.34,0.4253,20.8267,right
32723,0.1002,0.0190,0.4210,3.91,-1.42,16.79,0.4332,17.3011,right
32743,0.1067,0.0181,0.4159,4.12,-2.76,12.21,0.4297,13.1835,right
32763,0.0994,0.0183,0.4209,3.76,-2.15,7.91,0.4329,9.0157,right
32783,0.0863,0.0208,0.4240,4.08,-3.44,5.36,0.4331,7.5586,right
32803,0.0748,0.0286,0.4169,4.27,-6.20,4.23,0.4245,8.6359,right
32823,0.0774,0.0287,0.4155,4.79,-7.30,3.79,0.4236,9.5170,right
32843,0.0830,0.0314,0.4143,4.82,-6.82,4.09,0.4237,9.3053,right
32863,0.0945,0.0288,0.4038,4.84,-4.58,3.60,0.4157,7.5751,right
32883,0.0907,0.0339,0.4027,3.57,-1.07,2.79,0.4142,4.6595,right
32903,0.0773,0.0349,0.4128,2.69,-1.45,1.48,0.4215,3.3936,right
32923,0.0765,0.0320,0.4136,2.95,-3.86,1.01,0.4218,4.9616,right
32943,0.0779,0.0319,0.4150,3.24,-3.77,1.13,0.4235,5.0963,right
32963,0.0775,0.0297,0.4114,3.51,-1.77,2.09,0.4197,4.4544,right
32983,0.0754,0.0295,0.4156,3.69,0.02,2.58,0.4235,4.5064,right
33003,0.0782,0.0323,0.4132,3.47,0.99,2.14,0.4218,4.1909,right
33023,0.0699,0.0345,0.4177,2.61,0.72,0.95,0.4249,2.8682,right
33043,0.0652,0.0317,0.4161,2.21,-1.56,0.44,0.4224,2.7426,right
33063,0.0747,0.0333,0.4159,1.57,-3.95,0.38,0.4239,4.2725,right
33083,0.0863,0.0375,0.4093,1.39,-5.01,-0.55,0.4200,5.2258,right
33103,0.0930,0.0396,0.4104,1.08,-3.51,-1.65,0.4227,4.0279,right
33123,0.0972,0.0371,0.4103,0.66,0.37,-2.38,0.4233,2.4975,right
33143,0.0869,0.0371,0.4183,0.66,1.18,-2.47,0.4289,2.8160,right
33163,0.0785,0.0334,0.4149,1.36,-0.47,-2.49,0.4236,2.8746,right
33183,0.0770,0.0350,0.4138,2.05,-2.00,-2.64,0.4224,3.8938,stop
33203,0.0808,0.0328,0.4113,2.72,-3.80,-3.47,0.4204,5.8179,stop
33223,0.0751,0.0432,0.4150,2.90,-3.83,-3.25,0.4240,5.8029,stop
33243,0.0688,0.0396,0.4198,2.27,-7.56,-2.90,0.4272,8.4084,stop
33263,0.0792,0.0403,0.4146,3.36,-8.61,-2.63,0.4240,9.6084,stop
33283,0.0837,0.0419,0.4141,3.98,-5.48,-2.53,0.4245,7.2347,stop
33303,0.0822,0.0404,0.4178,4.20,-1.56,-2.11,0.4278,4.9489,stop
33323,0.0703,0.0413,0.4158,4.41,-1.28,-1.37,0.4237,4.7959,stop
33343,0.0681,0.0396,0.4211,4.64,-3.98,-1.07,0.4284,6.2098,stop
33363,0.0780,0.0409,0.4115,4.82,-4.38,-1.31,0.4208,6.6482,stop
33383,0.0836,0.0419,0.4115,3.86,-3.80,-2.05,0.4220,5.7928,stop
33403,0.0759,0.0416,0.4120,3.40,-2.61,-2.35,0.4210,4.8923,stop
33423,0.0717,0.0441,0.4082,2.78,-4.35,-2.66,0.4168,5.8060,stop
33443,0.0699,0.0490,0.4042,1.56,-5.24,-2.17,0.4131,5.8777,stop
33463,0.0698,0.0530,0.3970,0.35,-5.69,-1.37,0.4065,5.8686,stop
33483,0.0728,0.0504,0.3909,-1.57,-4.73,-0.37,0.4008,5.0007,stop
33503,0.0686,0.0507,0.3870,-3.76,-2.00,1.71,0.3962,4.5858,stop
33523,0.0806,0.0394,0.3898,-5.53,1.31,3.13,0.4000,6.4857,stop
33543,0.0747,0.0316,0.3813,-7.62,5.66,3.50,0.3899,10.1165,stop
33563,0.0581,0.0378,0.3737,-10.99,3.34,3.83,0.3800,12.1118,stop
33583,0.0500,0.0306,0.3674,-13.79,-2.20,4.69,0.3721,14.7262,stop
33603,0.0442,0.0505,0.3446,-22.24,-9.82,4.78,0.3511,24.7793,stop
33623,0.0498,0.0476,0.3256,-31.07,-17.31,6.06,0.3328,36.0796,stop
33643,0.1135,0.0210,0.3379,-37.11,-12.89,6.93,0.3571,39.8944,stop
33663,0.1787,-0.0190,0.3364,-42.53,7.07,4.92,0.3814,43.3971,stop
33683,0.1672,-0.0421,0.3645,-41.15,35.39,4.03,0.4032,54.4202,stop
33703,0.1041,-0.0400,0.3740,-41.19,44.05,4.75,0.3903,60.4918,stop
33723,0.0399,-0.0187,0.3643,-45.63,33.95,5.27,0.3669,57.1232,stop
33743,-0.0056,-0.0049,0.3352,-57.10,8.24,7.86,0.3353,58.2247,stop
33763,-0.0173,-0.0165,0.3059,-69.73,-17.76,9.60,0.3068,72.5885,stop
33783,0.0259,-0.0323,0.3057,-81.22,-36.35,6.95,0.3085,89.2557,stop
33803,0.0854,-0.0553,0.3018,-90.66,-37.94,0.50,0.3185,98.2762,stop
33823,0.1188,-0.0813,0.3256,-96.20,-24.49,6.02,0.3560,99.4486,stop
33843,0.0981,-0.1075,0.3208,-101.91,-14.00,13.62,0.3523,103.7631,stop
33863,0.0096,-0.1052,0.3447,-104.72,-16.37,23.65,0.3606,108.5951,stop
33883,0.0714,-0.1592,0.3724,-102.67,-21.28,26.76,0.4113,108.2160,stop
33903,0.1185,-0.1931,0.3789,-103.94,-14.58,22.53,0.4415,107.3484,stop
33923,0.1425,-0.1743,0.3463,-109.88,-1.22,15.85,0.4131,111.0215,stop
33943,0.0474,-0.1934,0.3792,-126.95,7.95,5.01,0.4282,127.2941,stop
33963,0.0020,-0.2418,0.3951,-117.07,-10.64,14.93,0.4633,118.4958,stop
33983,0.0265,-0.2434,0.4022,-109.60,-28.98,18.66,0.4709,114.8937,stop
34003,0.0824,-0.2662,0.3749,-110.49,-35.92,19.73,0.4671,117.8444,stop
34023,0.1385,-0.2979,0.3636,-111.01,-26.31,22.32,0.4901,116.2449,stop
34043,0.1129,-0.3204,0.3561,-107.79,-15.59,22.82,0.4922,111.2736,stop
34063,0.0491,-0.3173,0.3633,-103.08,-18.41,25.59,0.4848,107.7963,stop
34083,0.0831,-0.3429,0.3661,-97.25,-26.81,27.76,0.5084,104.6281,stop
34103,0.1497,-0.3801,0.3287,-95.53,-24.40,25.16,0.5244,101.7527,stop
34123,0.1399,-0.3828,0.3085,-95.36,-16.46,21.54,0.5111,99.1374,stop
34143,0.0967,-0.3762,0.2927,-92.72,-17.69,19.60,0.4864,96.4050,stop
34163,0.0966,-0.3900,0.2783,-91.91,-25.15,19.05,0.4888,97.1723,stop
34183,0.0928,-0.4033,0.2581,-92.55,-31.19,18.41,0.4877,99.3847,stop
34203,0.0498,-0.4048,0.2605,-90.56,-38.43,20.82,0.4839,100.5601,stop
34223,0.0726,-0.4220,0.2648,-83.91,-46.82,25.85,0.5034,99.5049,stop
34243,0.1249,-0.4469,0.2382,-78.21,-45.04,27.28,0.5216,94.2876,stop
34263,0.1383,-0.4447,0.2170,-71.85,-35.85,26.05,0.5138,84.4124,stop
34283,0.1869,-0.4524,0.1926,-68.03,-16.60,24.29,0.5260,74.1186,stop
34303,0.2047,-0.4807,0.2015,-65.97,13.48,18.56,0.5600,69.8453,stop
34323,0.1494,-0.4862,0.2250,-61.69,23.89,11.94,0.5562,67.2283,stop
34343,0.1074,-0.4828,0.2115,-56.99,24.64,6.55,0.5379,62.4357,stop
34363,0.0626,-0.4827,0.2141,-55.33,14.58,3.56,0.5317,57.3276,stop
34383,0.0587,-0.4893,0.1992,-47.18,0.73,2.27,0.5315,47.2361,stop
34403,0.0671,-0.4906,0.2018,-39.50,-7.11,0.89,0.5347,40.1416,stop
34423,0.0848,-0.4965,0.2155,-31.21,-11.44,-0.70,0.5478,33.2427,stop
34443,0.1151,-0.4922,0.2053,-24.29,-12.09,-3.25,0.5456,27.3275,stop
34463,0.1345,-0.4871,0.1971,-18.99,-5.16,-6.09,0.5424,20.6021,stop
34483,0.1235,-0.4871,0.1915,-13.63,3.10,-8.76,0.5377,16.5008,stop
34503,0.1116,-0.4827,0.1854,-8.63,8.17,-10.73,0.5290,16.0099,stop
34523,0.0819,-0.4822,0.1949,-4.00,8.75,-11.39,0.5265,14.9079,stop
34543,0.0574,-0.4880,0.2122,3.56,0.79,-10.31,0.5352,10.9309,stop
34563,0.0712,-0.4915,0.2081,11.36,-7.36,-10.34,0.5384,17.0295,stop
34583,0.0813,-0.4913,0.2123,20.00,-13.74,-10.93,0.5414,26.6138,stop
34603,0.0701,-0.4886,0.2333,29.27,-19.48,-9.69,0.5460,36.4700,stop
34623,0.0569,-0.4982,0.2422,38.58,-30.98,-6.53,0.5568,49.9070,stop
34643,0.1179,-0.5020,0.2178,49.24,-35.95,-7.42,0.5597,61.4167,stop
34663,0.1569,-0.5010,0.2097,61.56,-18.24,-10.82,0.5653,65.1100,stop
34683,0.1104,-0.4786,0.2435,71.13,-6.66,-11.21,0.5483,72.3141,stop
34703,0.0704,-0.4756,0.2776,75.89,-18.67,-7.51,0.5552,78.5164,stop
34723,0.0625,-0.4954,0.2938,85.05,-38.56,-7.16,0.5793,93.6622,stop
34743,0.0907,-0.4941,0.2810,98.69,-54.82,-8.50,0.5756,113.2129,stop
34763,0.1576,-0.4753,0.2450,108.24,-58.12,-13.48,0.5575,123.5991,stop
34783,0.1947,-0.4491,0.2423,112.67,-44.46,-19.08,0.5462,122.6199,stop
34803,0.2007,-0.4336,0.2522,113.51,-28.34,-23.48,0.5403,119.3278,stop
34823,0.2025,-0.4281,0.2805,115.73,-11.40,-25.34,0.5504,119.0154,stop
34843,0.2083,-0.4252,0.2880,120.61,4.43,-27.45,0.5541,123.7742,stop
34863,0.1868,-0.4017,0.2948,124.98,16.66,-30.31,0.5321,129.6732,stop
34883,0.1469,-0.3645,0.2999,124.46,18.26,-30.64,0.4944,129.4685,stop
34903,0.1519,-0.3563,0.3103,122.00,12.87,-32.08,0.4963,126.8012,stop
34923,0.1864,-0.3624,0.3113,122.15,15.59,-36.23,0.5128,128.3620,stop
34943,0.1768,-0.3571,0.3221,128.82,22.05,-39.83,0.5124,136.6322,stop
34963,0.1661,-0.3094,0.3177,129.77,26.32,-38.09,0.4736,137.7834,stop
34983,0.1519,-0.2876,0.3236,127.66,25.89,-37.53,0.4588,135.5612,stop
35003,0.1393,-0.2618,0.3358,126.05,19.44,-37.19,0.4480,132.8474,stop
35023,0.1478,-0.2283,0.3413,124.21,15.36,-38.43,0.4364,130.9260,stop
35043,0.1348,-0.2017,0.3469,120.03,11.48,-37.15,0.4233,126.1701,stop
35063,0.1362,-0.1824,0.3466,118.27,7.98,-35.05,0.4146,123.6181,stop
35083,0.1484,-0.1646,0.3484,117.27,5.28,-36.34,0.4129,122.8812,stop
35103,0.1484,-0.1331,0.3364,114.87,6.72,-37.94,0.3910,121.1596,stop
35123,0.1483,-0.1050,0.3419,111.44,11.76,-38.18,0.3872,118.3805,stop
35143,0.1326,-0.0884,0.3521,106.47,11.40,-38.69,0.3864,113.8565,stop
35163,0.1130,-0.0612,0.3365,101.16,2.50,-40.18,0.3603,108.8778,stop
35183,0.1411,-0.0312,0.3237,94.35,-4.41,-43.92,0.3545,104.1676,stop
35203,0.1648,-0.0131,0.3042,83.88,0.29,-43.65,0.3462,94.5558,stop
35223,0.1617,-0.0045,0.3059,77.44,9.48,-43.44,0.3461,89.2899,stop
35243,0.1381,0.0200,0.3171,71.37,13.27,-44.06,0.3465,84.9214,stop
35263,0.1108,0.0431,0.3137,64.29,10.63,-43.02,0.3355,78.0839,stop
35283,0.1008,0.0690,0.3184,57.62,8.78,-40.58,0.3410,71.0189,stop
35303,0.0920,0.0833,0.3141,49.65,2.38,-37.51,0.3377,62.2719,stop
35323,0.1022,0.0974,0.3149,41.85,1.39,-36.03,0.3451,55.2388,stop
35343,0.1014,0.1025,0.3245,34.61,2.78,-33.65,0.3551,48.3515,stop
35363,0.0879,0.1100,0.3241,28.93,0.24,-29.11,0.3534,41.0455,stop
35383,0.1022,0.1207,0.3191,22.50,-1.74,-26.56,0.3561,34.8589,stop
35403,0.1071,0.1184,0.3317,17.95,6.82,-23.25,0.3681,30.1592,stop
35423,0.0804,0.1136,0.3497,15.08,10.73,-18.17,0.3764,25.9383,stop
35443,0.0706,0.1188,0.3684,12.12,4.58,-13.08,0.3935,18.4151,stop
35463,0.0791,0.1156,0.3652,8.64,-3.71,-10.24,0.3912,13.9061,stop
35483,0.0997,0.1174,0.3622,5.68,-5.28,-8.85,0.3936,11.7716,stop
35503,0.1115,0.1073,0.3756,4.18,1.34,-7.60,0.4062,8.7813,stop
35523,0.1066,0.0975,0.3893,3.39,4.64,-5.18,0.4152,7.7340,stop
35543,0.0870,0.1080,0.3892,2.47,2.15,-3.11,0.4131,4.5223,stop
35563,0.0741,0.1127,0.3850,-0.17,-6.46,-1.56,0.4079,6.6452,stop
35583,0.1007,0.1097,0.3849,-1.68,-12.50,-2.06,0.4127,12.7833,stop
35603,0.1195,0.1129,0.3929,-3.69,-10.98,-1.56,0.4260,11.6864,stop
35623,0.1356,0.1095,0.3885,-5.22,-7.37,-1.85,0.4259,9.2224,stop
35643,0.1366,0.1064,0.3927,-5.22,0.73,-1.88,0.4292,5.5970,stop
35663,0.1144,0.1085,0.3972,-5.42,4.69,-0.96,0.4274,7.2297,stop
35683,0.0901,0.0995,0.4084,-4.79,1.69,0.44,0.4299,5.1039,stop
35703,0.0989,0.1084,0.4061,-4.17,-3.85,0.90,0.4318,5.7433,stop
35723,0.1100,0.1036,0.4080,-2.93,-6.95,0.20,0.4350,7.5423,stop
35743,0.1296,0.1007,0.4049,-1.65,-3.73,-0.46,0.4369,4.0995,stop
35763,0.1295,0.1030,0.4095,-1.05,0.37,-0.66,0.4417,1.2942,stop
35783,0.1169,0.0992,0.4049,-0.41,1.54,-0.66,0.4330,1.7259,stop
35803,0.1086,0.0988,0.4047,1.04,-0.92,-1.25,0.4305,1.8666,stop
35823,0.1146,0.1051,0.3922,1.25,-3.36,-2.15,0.4219,4.1812,stop
35843,0.1180,0.1090,0.3975,-0.14,-4.38,-2.81,0.4287,5.2067,stop
35863,0.1306,0.1034,0.3954,-1.15,-3.07,-2.84,0.4290,4.3350,stop
35883,0.1389,0.0992,0.3982,-1.27,0.44,-3.91,0.4332,4.1325,stop
