time_ms,ax,ay,az,gx,gy,gz,acc_mag,gyro_mag,label
11123,0.0936,-0.0004,0.4119,0.79,-2.64,1.73,0.4224,3.2531,idle
11143,0.0964,-0.0007,0.4164,1.16,-1.80,1.42,0.4274,2.5706,idle
11163,0.0996,-0.0004,0.4153,1.59,-2.17,0.78,0.4271,2.7977,idle
11183,0.0985,0.0048,0.4166,1.92,-1.95,0.24,0.4281,2.7530,idle
11203,0.0990,0.0044,0.4115,1.54,-2.27,0.72,0.4233,2.8403,idle
11223,0.1052,0.0048,0.4110,1.48,-1.80,0.63,0.4243,2.4146,idle
11243,0.1016,0.0082,0.4122,0.95,-0.34,0.29,0.4246,1.0454,idle
11263,0.0929,0.0027,0.4143,0.73,-0.95,0.29,0.4246,1.2317,idle
11283,0.0930,-0.0022,0.4150,1.07,-2.52,0.52,0.4253,2.7852,idle
11303,0.0935,-0.0010,0.4181,1.68,-2.93,-0.29,0.4284,3.3907,idle
11323,0.0995,0.0039,0.4207,2.34,-3.05,-0.31,0.4323,3.8566,idle
11343,0.0974,0.0100,0.4155,2.11,-3.21,-0.32,0.4269,3.8498,idle
11363,0.0978,0.0035,0.4121,2.06,-3.34,-0.23,0.4236,3.9344,idle
11383,0.0964,0.0001,0.4183,2.63,-3.18,-0.12,0.4293,4.1225,idle
11403,0.0952,0.0038,0.4137,2.82,-4.23,-0.76,0.4245,5.1424,idle
11423,0.0973,0.0035,0.4103,3.04,-3.80,-0.99,0.4217,4.9666,idle
11443,0.1019,0.0068,0.4054,2.66,-3.22,-0.85,0.4181,4.2621,idle
11463,0.0964,0.0065,0.4067,2.03,-2.98,-1.18,0.4181,3.7905,idle
11483,0.0959,0.0081,0.4169,1.89,-3.21,-1.16,0.4278,3.8999,idle
11503,0.0939,0.0073,0.4095,1.77,-4.24,-1.11,0.4202,4.7321,idle
11523,0.0969,0.0040,0.4069,1.51,-3.42,-0.73,0.4183,3.8101,idle
11543,0.0967,0.0074,0.4114,1.34,-2.53,-0.40,0.4227,2.8958,idle
11563,0.0935,0.0073,0.4110,1.47,-2.15,-0.09,0.4216,2.6059,idle
11583,0.0912,0.0068,0.4149,1.21,-2.44,-0.03,0.4249,2.7245,idle
11603,0.0923,0.0074,0.4131,1.04,-3.74,0.29,0.4233,3.8927,idle
11623,0.0975,0.0085,0.4097,1.57,-4.08,0.29,0.4212,4.3788,idle
11643,0.0959,0.0100,0.4130,1.36,-3.11,0.26,0.4241,3.4079,idle
11663,0.1006,0.0095,0.4156,1.91,-3.62,0.49,0.4278,4.1198,idle
11683,0.0986,0.0104,0.4108,2.00,-3.66,0.49,0.4226,4.2029,idle
11703,0.1022,0.0093,0.4132,1.91,-2.87,0.02,0.4258,3.4468,idle
11723,0.0991,0.0077,0.4128,2.09,-2.03,-0.02,0.4246,2.9152,idle
11743,0.1011,0.0106,0.4083,1.77,-1.45,0.08,0.4208,2.2904,idle
11763,0.0964,0.0095,0.4072,1.24,-1.60,-0.08,0.4186,2.0261,idle
11783,0.0935,0.0089,0.4048,0.81,-1.45,0.11,0.4155,1.6643,idle
11803,0.0972,0.0100,0.4098,0.15,-2.21,0.31,0.4213,2.2399,idle
11823,0.0986,0.0088,0.4050,-0.23,-2.00,0.70,0.4170,2.1321,idle
11843,0.1031,0.0076,0.4099,-0.20,-1.18,1.01,0.4228,1.5610,idle
11863,0.0978,0.0093,0.4147,-0.49,-0.44,1.31,0.4261,1.4692,idle
11883,0.0969,0.0088,0.4177,-0.50,-1.69,1.22,0.4289,2.1488,idle
11903,0.0986,0.0073,0.4108,-0.31,-3.11,0.90,0.4225,3.2565,idle
11923,0.1084,0.0098,0.4100,-0.49,-2.55,0.66,0.4242,2.6777,idle
11943,0.1023,0.0066,0.4127,-0.56,-1.68,0.41,0.4253,1.8192,idle
11963,0.0974,0.0044,0.4146,0.14,-1.92,0.66,0.4259,2.0372,idle
11983,0.1060,0.0062,0.4166,0.50,-2.20,0.09,0.4299,2.2573,idle
12003,0.1034,0.0042,0.4104,0.21,-1.62,-0.23,0.4232,1.6484,idle
12023,0.0992,0.0038,0.4138,0.64,-0.69,-0.47,0.4256,1.0522,idle
12043,0.0975,0.0029,0.4150,0.95,-1.91,-0.24,0.4264,2.1442,idle
12063,0.0969,0.0059,0.4122,1.28,-2.17,-0.17,0.4235,2.5244,idle
12083,0.0905,0.0045,0.4137,1.19,-2.90,-0.61,0.4235,3.1946,idle
12103,0.1001,0.0029,0.4141,1.44,-4.38,-0.67,0.4260,4.6594,idle
12123,0.1053,0.0063,0.4122,1.34,-2.53,-1.53,0.4255,3.2494,idle
12143,0.0941,0.0057,0.4077,1.36,-0.67,-1.01,0.4185,1.8201,idle
12163,0.0969,0.0038,0.4097,1.31,-0.41,-0.67,0.4210,1.5314,idle
12183,0.0957,0.0077,0.4108,1.25,-0.53,-0.50,0.4218,1.4514,idle
12203,0.1021,0.0066,0.4127,1.34,-0.53,-0.61,0.4252,1.5696,idle
12223,0.0966,0.0087,0.4109,1.24,-1.27,-0.41,0.4222,1.8179,idle
12243,0.1056,0.0123,0.4144,0.89,-0.92,-0.12,0.4278,1.2799,idle
12263,0.0990,0.0061,0.4194,0.58,-0.46,-0.85,0.4310,1.1302,idle
12283,0.0969,0.0046,0.4204,1.07,-2.03,-0.79,0.4315,2.4281,idle
12303,0.1019,0.0098,0.4192,1.60,-2.67,-0.50,0.4315,3.1562,idle
12323,0.1029,0.0140,0.4149,1.31,-1.45,0.06,0.4277,1.9574,idle
12343,0.1029,0.0046,0.4141,1.08,-1.51,0.29,0.4267,1.8824,idle
12363,0.0988,0.0066,0.4180,1.77,-1.91,0.05,0.4295,2.6039,idle
12383,0.1013,0.0082,0.4153,2.14,-2.78,-0.95,0.4275,3.6311,idle
12403,0.0986,0.0061,0.4159,3.13,-3.18,-1.71,0.4275,4.7753,idle
12423,0.1007,0.0123,0.4127,3.15,-2.93,-1.77,0.4250,4.6498,idle
12443,0.1031,0.0070,0.4053,3.24,-2.38,-2.34,0.4183,4.6481,idle
12463,0.1021,0.0115,0.4119,3.01,-1.89,-2.60,0.4245,4.4007,idle
12483,0.0968,0.0088,0.4094,2.40,-1.25,-3.18,0.4208,4.1710,idle
12503,0.0925,0.0110,0.4109,2.31,-1.94,-3.16,0.4213,4.3660,idle
12523,0.0935,0.0151,0.4083,1.45,-2.17,-1.74,0.4192,3.1357,idle
12543,0.0959,0.0138,0.4166,0.41,-2.18,-0.58,0.4278,2.2963,idle
12563,0.0978,0.0114,0.4104,0.26,-2.84,-0.18,0.4220,2.8574,idle
12583,0.0939,0.0120,0.4137,0.20,-3.54,-0.85,0.4244,3.6491,idle
12603,0.0957,0.0115,0.4137,0.03,-3.83,-0.61,0.4248,3.8805,idle
12623,0.1038,0.0103,0.4119,0.69,-3.62,0.52,0.4249,3.7194,idle
12643,0.1021,0.0106,0.4152,0.73,-1.44,0.72,0.4277,1.7639,idle
12663,0.0977,0.0065,0.4144,1.25,-1.89,0.49,0.4258,2.3216,idle
12683,0.1010,0.0079,0.4116,1.71,-2.37,0.24,0.4239,2.9297,idle
12703,0.1023,0.0096,0.4087,1.57,-1.68,-0.43,0.4214,2.3401,idle
12723,0.1000,0.0134,0.4082,1.28,-1.95,-0.64,0.4205,2.4238,idle
12743,0.0984,0.0116,0.4088,1.15,-2.49,-0.70,0.4206,2.8279,idle
12763,0.1041,0.0107,0.4087,0.89,-2.75,0.12,0.4219,2.8898,idle
12783,0.1063,0.0131,0.4050,0.52,-1.56,-0.12,0.4190,1.6460,idle
12803,0.0989,0.0139,0.4097,-0.05,-0.18,-0.49,0.4217,0.5238,idle
12823,0.0935,0.0092,0.4156,-0.18,-1.86,-0.44,0.4261,1.9232,idle
12843,0.1013,0.0071,0.4166,0.81,-3.53,-0.69,0.4288,3.6830,idle
12863,0.1066,0.0076,0.4095,0.98,-2.46,-1.45,0.4233,3.0166,idle
12883,0.0996,0.0154,0.4054,1.25,-0.72,-1.36,0.4177,1.9820,idle
12903,0.0974,0.0092,0.4186,1.08,-0.78,-0.87,0.4299,1.5933,idle
12923,0.0883,0.0100,0.4176,1.18,-1.54,-0.78,0.4269,2.0895,idle
12943,0.0956,0.0115,0.4169,1.34,-2.37,-0.73,0.4278,2.8181,idle
12963,0.1027,0.0128,0.4059,1.04,-2.64,-0.47,0.4189,2.8771,idle
12983,0.1011,0.0137,0.4098,0.55,-1.62,-0.55,0.4223,1.7953,idle
13003,0.0984,0.0093,0.4126,0.37,-1.36,-0.43,0.4243,1.4708,idle
13023,0.0968,0.0109,0.4144,0.41,-2.05,0.31,0.4257,2.1091,idle
13043,0.0989,0.0107,0.4174,0.69,-2.31,0.35,0.4290,2.4310,idle
13063,0.1002,0.0095,0.4185,0.79,-2.56,0.06,0.4304,2.6856,idle
13083,0.1001,0.0094,0.4056,0.58,-2.35,-0.02,0.4179,2.4217,idle
13103,0.0983,0.0101,0.4133,0.20,-1.94,0.34,0.4250,1.9778,idle
13123,0.1010,0.0098,0.4122,-0.09,-2.31,0.14,0.4245,2.3113,idle
13143,0.1033,0.0114,0.4097,-0.32,-2.49,0.27,0.4226,2.5241,idle
13163,0.1022,0.0073,0.4127,-0.02,-2.76,0.15,0.4252,2.7676,idle
13183,0.1041,0.0100,0.4156,0.09,-3.28,0.14,0.4286,3.2866,idle
13203,0.1060,0.0103,0.4136,0.15,-2.15,0.06,0.4271,2.1589,idle
13223,0.0996,0.0095,0.4136,0.15,-1.73,-0.05,0.4255,1.7325,idle
13243,0.0963,0.0079,0.4130,0.46,-2.63,-0.17,0.4241,2.6709,idle
13263,0.1010,0.0050,0.4137,0.58,-3.73,0.02,0.4259,3.7701,idle
13283,0.1035,0.0071,0.4103,0.95,-3.22,-0.08,0.4232,3.3584,idle
13303,0.1006,0.0094,0.4062,0.66,-2.14,0.32,0.4186,2.2588,idle
13323,0.1005,0.0051,0.4064,0.43,-1.36,0.27,0.4186,1.4507,idle
13343,0.0967,0.0073,0.4120,0.37,-1.71,-0.72,0.4232,1.8902,idle
13363,0.1014,0.0104,0.4153,0.96,-2.95,-1.05,0.4276,3.2737,idle
13383,0.1028,0.0112,0.4138,1.18,-1.76,-0.66,0.4265,2.2126,idle
13403,0.1053,0.0101,0.4120,0.89,-0.85,-0.61,0.4254,1.3740,idle
13423,0.0999,0.0112,0.4128,1.07,-0.21,-0.52,0.4249,1.2072,idle
13443,0.1003,0.0115,0.4073,0.81,-0.43,-0.49,0.4197,1.0374,idle
13463,0.0928,0.0103,0.4189,0.69,-2.27,-0.35,0.4292,2.4021,idle
13483,0.1040,0.0095,0.4131,0.89,-2.96,0.27,0.4261,3.1036,idle
13503,0.1079,0.0073,0.4106,1.01,-1.65,0.29,0.4246,1.9540,idle
13523,0.1008,0.0103,0.4105,0.56,-1.51,-0.02,0.4228,1.6136,idle
13543,0.0991,0.0081,0.4178,1.02,-2.14,-0.38,0.4295,2.4001,idle
13563,0.1028,0.0096,0.4164,1.25,-2.82,-0.23,0.4290,3.0979,idle
13583,0.1062,0.0099,0.4108,1.37,-2.14,0.09,0.4244,2.5426,idle
13603,0.1040,0.0111,0.4099,1.88,-1.56,0.00,0.4230,2.4395,idle
13623,0.1008,0.0103,0.4133,1.10,-1.91,0.24,0.4256,2.2158,idle
13643,0.0967,0.0093,0.4152,1.22,-3.22,0.67,0.4264,3.5100,idle
13663,0.1033,0.0084,0.4108,1.07,-3.69,0.56,0.4236,3.8874,idle
13683,0.1021,0.0104,0.4143,1.10,-2.64,0.64,0.4268,2.9318,idle
13703,0.1010,0.0074,0.4109,1.33,-2.53,0.67,0.4232,2.9391,idle
13723,0.1022,0.0100,0.4131,0.84,-2.14,0.40,0.4257,2.3305,idle
13743,0.0970,0.0082,0.4092,1.15,-1.91,0.40,0.4206,2.2607,idle
13763,0.1008,0.0116,0.4097,1.22,-2.46,0.24,0.4221,2.7556,idle
13783,0.1045,0.0068,0.4103,0.93,-1.98,-0.32,0.4234,2.2157,idle
13803,0.1055,0.0109,0.4083,0.70,-0.72,-0.38,0.4219,1.0741,idle
13823,0.0968,0.0110,0.4047,0.76,-1.54,-0.17,0.4162,1.7288,idle
13843,0.1024,0.0121,0.4093,0.49,-1.89,0.27,0.4221,1.9744,idle
13863,0.1044,0.0082,0.4150,0.27,-1.85,-0.18,0.4280,1.8766,idle
13883,0.1019,0.0077,0.4100,0.26,-0.82,-0.34,0.4226,0.9273,idle
13903,0.1001,0.0068,0.4159,0.06,-1.60,-0.24,0.4278,1.6227,idle
13923,0.1012,0.0095,0.4098,0.37,-1.97,-0.67,0.4222,2.1129,idle
13943,0.1045,0.0105,0.4070,0.40,-1.37,-1.27,0.4203,1.9108,idle
13963,0.1053,0.0099,0.4115,0.55,-0.18,-0.78,0.4249,0.9705,idle
13983,0.0988,0.0068,0.4150,0.72,-0.20,-0.60,0.4267,0.9533,idle
14003,0.0997,0.0098,0.4150,0.99,-1.28,-1.15,0.4270,1.9851,idle
14023,0.1003,0.0126,0.4144,1.34,-2.46,-1.66,0.4266,3.2582,idle
14043,0.1057,0.0116,0.4135,1.36,-2.61,-1.22,0.4269,3.1865,idle
14063,0.1055,0.0123,0.4171,1.79,-1.56,-1.48,0.4304,2.7944,idle
14083,0.1025,0.0117,0.4183,1.71,-1.31,-1.39,0.4309,2.5647,idle
14103,0.0979,0.0121,0.4144,1.88,-2.11,-0.95,0.4260,2.9768,idle
14123,0.1012,0.0110,0.4147,1.97,-1.62,-0.78,0.4270,2.6653,idle
14143,0.0923,0.0143,0.4131,1.68,-2.46,-0.60,0.4235,3.0359,idle
14163,0.0968,0.0146,0.4127,1.82,-3.05,-0.02,0.4242,3.5531,idle
14183,0.1019,0.0135,0.4105,1.47,-2.40,0.05,0.4232,2.8099,idle
14203,0.1005,0.0138,0.4069,1.13,-1.28,0.24,0.4193,1.7265,idle
14223,0.0969,0.0092,0.4209,1.37,-2.40,0.37,0.4320,2.7870,idle
14243,0.0981,0.0115,0.4100,1.54,-3.36,0.87,0.4218,3.7969,idle
14263,0.1040,0.0132,0.4115,0.99,-2.49,1.25,0.4246,2.9572,idle
14283,0.1027,0.0100,0.4137,0.99,-1.31,1.19,0.4264,2.0315,idle
14303,0.0983,0.0140,0.4137,1.47,-1.71,0.69,0.4254,2.3546,idle
14323,0.1012,0.0129,0.4100,1.22,-3.16,0.21,0.4225,3.3948,idle
14343,0.1069,0.0117,0.4069,1.53,-2.55,-0.05,0.4208,2.9721,idle
14363,0.1062,0.0145,0.4121,1.69,-0.60,-0.21,0.4258,1.8089,idle
14383,0.0994,0.0148,0.4128,1.42,-1.04,-0.21,0.4249,1.7718,idle
14403,0.0977,0.0098,0.4102,1.05,-1.80,0.17,0.4217,2.0937,idle
14423,0.1045,0.0135,0.4138,0.76,-2.27,0.03,0.4270,2.3997,idle
14443,0.1021,0.0127,0.4091,0.60,-1.42,-0.73,0.4218,1.7051,idle
14463,0.1019,0.0162,0.4121,0.37,-1.76,-0.85,0.4248,1.9869,idle
14483,0.0983,0.0111,0.4100,0.24,-2.53,-0.37,0.4218,2.5723,idle
14503,0.1055,0.0106,0.4111,0.41,-2.14,-0.08,0.4246,2.1781,idle
14523,0.1062,0.0096,0.4133,0.58,-1.01,-0.26,0.4269,1.1913,idle
14543,0.0977,0.0100,0.4117,1.02,-1.10,-0.60,0.4233,1.6153,idle
14563,0.1008,0.0134,0.4175,1.22,-1.92,-1.22,0.4297,2.5853,idle
14583,0.0994,0.0114,0.4131,1.36,-1.91,-0.49,0.4250,2.3931,idle
14603,0.0968,0.0110,0.4109,1.33,-2.26,-0.05,0.4223,2.6214,idle
14623,0.1050,0.0121,0.4110,1.36,-1.74,0.21,0.4244,2.2184,idle
14643,0.1005,0.0118,0.4114,0.90,-1.48,0.00,0.4236,1.7333,idle
14663,0.0980,0.0093,0.4138,0.84,-1.97,-0.34,0.4254,2.1672,idle
14683,0.1042,0.0109,0.4176,1.01,-2.61,-0.31,0.4306,2.8150,idle
14703,0.1041,0.0107,0.4072,1.05,-2.15,-0.41,0.4205,2.4318,idle
14723,0.1033,0.0133,0.4077,0.76,-1.16,-0.79,0.4208,1.5998,idle
14743,0.1013,0.0138,0.4137,0.66,-1.30,-0.93,0.4261,1.7269,idle
14763,0.1038,0.0131,0.4130,0.73,-1.25,-1.01,0.4260,1.7662,idle
14783,0.0988,0.0162,0.4105,0.05,-1.01,-0.99,0.4225,1.4150,idle
14803,0.0927,0.0156,0.4202,0.31,-2.11,-1.01,0.4305,2.3553,idle
14823,0.0995,0.0129,0.4191,0.56,-3.30,-1.21,0.4309,3.5565,forward
14843,0.0991,0.0156,0.4148,0.56,-2.69,-0.53,0.4268,2.7973,forward
14863,0.1062,0.0092,0.4136,0.60,-2.09,0.17,0.4271,2.1812,forward
14883,0.1003,0.0116,0.4169,1.10,-1.27,-0.23,0.4289,1.6931,forward
14903,0.0999,0.0160,0.4181,1.40,-1.85,-0.55,0.4301,2.3849,forward
14923,0.1002,0.0116,0.4121,2.03,-1.89,-0.52,0.4243,2.8243,forward
14943,0.1001,0.0140,0.4152,1.98,-1.71,-0.12,0.4273,2.6226,forward
14963,0.1010,0.0161,0.4098,1.80,-1.33,0.37,0.4223,2.2680,forward
14983,0.0979,0.0127,0.4098,1.51,-1.63,0.55,0.4215,2.2924,forward
15003,0.0979,0.0106,0.4081,1.13,-2.38,0.37,0.4198,2.6614,forward
15023,0.1068,0.0154,0.4042,0.64,-2.37,0.43,0.4183,2.4887,forward
15043,0.1051,0.0116,0.4092,0.27,-1.79,0.38,0.4226,1.8471,forward
15063,0.1006,0.0146,0.4119,0.31,-2.34,0.24,0.4242,2.3684,forward
15083,0.1063,0.0133,0.4100,0.18,-2.70,0.03,0.4238,2.7087,forward
15103,0.1056,0.0140,0.4098,-0.53,-0.95,-0.17,0.4234,1.0999,forward
15123,0.0985,0.0122,0.4149,-0.35,-1.40,-0.60,0.4266,1.5655,forward
15143,0.1005,0.0122,0.4161,0.46,-2.17,-0.50,0.4283,2.2723,forward
15163,0.1038,0.0105,0.4103,0.72,-1.57,-1.04,0.4233,2.0163,forward
15183,0.0986,0.0092,0.4141,0.79,-0.93,-0.49,0.4257,1.3177,forward
15203,0.0963,0.0115,0.4213,1.24,-1.19,-1.08,0.4323,2.0304,forward
15223,0.1027,0.0175,0.4122,1.85,-1.48,-1.28,0.4252,2.6927,forward
15243,0.1016,0.0167,0.4089,1.53,-1.08,-0.55,0.4217,1.9514,forward
15263,0.1003,0.0164,0.4114,1.01,-0.66,-0.35,0.4238,1.2528,forward
15283,0.0955,0.0138,0.4092,0.38,-0.96,0.12,0.4204,1.0420,forward
15303,0.0927,0.0154,0.4124,0.15,-2.23,0.64,0.4229,2.3244,forward
15323,0.1044,0.0115,0.4098,-0.41,-2.29,0.82,0.4230,2.4686,forward
15343,0.1010,0.0132,0.4136,-0.98,-1.94,0.17,0.4259,2.1777,forward
15363,0.1031,0.0151,0.4166,-0.78,-1.98,-0.08,0.4295,2.1334,forward
15383,0.1060,0.0154,0.4200,-0.49,-3.05,0.50,0.4335,3.1330,forward
15403,0.1095,0.0175,0.4265,-0.52,-2.61,0.09,0.4407,2.6634,forward
15423,0.1031,0.0143,0.4462,0.56,-4.52,0.41,0.4582,4.5729,forward
15443,0.1044,0.0140,0.4565,2.55,-8.00,1.59,0.4685,8.5453,forward
15463,0.1228,0.0082,0.4849,5.83,-9.74,1.82,0.5002,11.4974,forward
15483,0.1245,-0.0038,0.5100,11.85,-13.71,0.31,0.5250,18.1222,forward
15503,0.1250,0.0002,0.5193,19.24,-16.89,-0.23,0.5341,25.5973,forward
15523,0.1555,0.0009,0.5215,27.80,-13.07,-3.05,0.5442,30.8713,forward
15543,0.1603,0.0033,0.5289,36.78,-3.68,-4.41,0.5527,37.2246,forward
15563,0.1418,-0.0055,0.5544,47.68,4.47,-3.59,0.5723,48.0230,forward
15583,0.0857,-0.0049,0.5751,59.24,0.17,-2.76,0.5814,59.3013,forward
15603,0.0619,-0.0027,0.5800,72.87,-17.98,-2.35,0.5833,75.0936,forward
15623,0.0924,0.0020,0.5662,86.50,-38.75,-5.80,0.5737,94.9631,forward
15643,0.1283,0.0054,0.5529,101.82,-51.44,-11.28,0.5676,114.6278,forward
15663,0.1510,0.0233,0.5214,116.43,-57.21,-17.39,0.5433,130.8827,forward
15683,0.1715,0.0579,0.4735,128.17,-56.58,-22.82,0.5069,141.9482,forward
15703,0.1672,0.0817,0.4316,136.50,-52.81,-26.75,0.4701,148.7870,forward
15723,0.1454,0.0989,0.4059,142.46,-49.44,-29.01,0.4423,153.5564,forward
15743,0.1270,0.1141,0.3917,147.62,-53.65,-30.18,0.4273,159.9387,forward
15763,0.1173,0.1327,0.3508,152.06,-60.38,-31.82,0.3930,166.6758,forward
15783,0.1161,0.1464,0.3179,154.99,-65.97,-35.57,0.3687,172.1627,forward
15803,0.1198,0.1678,0.2792,157.66,-67.85,-37.15,0.3471,175.6160,forward
15823,0.1180,0.1937,0.2542,158.52,-69.82,-38.75,0.3407,177.4939,forward
15843,0.1096,0.2180,0.2269,158.09,-72.76,-36.82,0.3332,177.8862,forward
15863,0.1165,0.2247,0.2181,159.37,-83.10,-38.50,0.3341,183.8154,forward
15883,0.1501,0.2360,0.1626,160.23,-88.64,-42.84,0.3235,188.0581,forward
15903,0.1880,0.2788,0.0765,156.92,-73.54,-45.89,0.3449,179.2686,forward
15923,0.2095,0.3146,0.0596,149.95,-46.82,-46.02,0.3826,163.6954,forward
15943,0.1759,0.3191,0.0747,143.69,-30.61,-43.53,0.3719,153.2310,forward
15963,0.1497,0.3354,0.0272,136.89,-25.01,-41.54,0.3683,145.2197,forward
15983,0.1422,0.3630,0.0114,128.81,-19.34,-41.42,0.3901,136.6806,forward
16003,0.1342,0.3901,-0.0143,118.32,-11.83,-37.63,0.4128,124.7239,forward
16023,0.1179,0.3973,-0.0211,108.23,-10.27,-33.24,0.4150,113.6827,forward
16043,0.1108,0.4092,-0.0428,98.23,-12.18,-30.43,0.4261,103.5529,forward
16063,0.1144,0.4347,-0.0569,87.53,-13.51,-26.35,0.4531,92.4006,forward
16083,0.1212,0.4414,-0.0513,77.89,-13.42,-21.31,0.4606,81.8638,forward
16103,0.1455,0.4458,-0.0778,67.86,-8.32,-18.43,0.4753,70.8106,forward
16123,0.1575,0.4578,-0.0913,57.44,3.85,-17.85,0.4926,60.2671,forward
16143,0.1437,0.4816,-0.0945,45.40,14.52,-15.34,0.5113,50.0780,forward
16163,0.1310,0.4871,-0.0931,34.27,16.40,-11.08,0.5129,39.5787,forward
16183,0.1459,0.5018,-0.1168,24.26,19.66,-8.32,0.5355,32.3177,forward
16203,0.1426,0.5031,-0.1235,12.40,25.16,-5.65,0.5373,28.6118,forward
16223,0.1198,0.5167,-0.1053,3.31,24.93,-0.85,0.5408,25.1650,forward
16243,0.1080,0.5038,-0.0811,-5.56,12.60,2.06,0.5216,13.9203,forward
16263,0.1187,0.4976,-0.0664,-11.92,-3.51,1.83,0.5158,12.5643,forward
16283,0.1298,0.5055,-0.0608,-16.67,-16.81,1.39,0.5254,23.7155,forward
16303,0.1522,0.4995,-0.0607,-20.81,-22.73,1.25,0.5257,30.8443,forward
16323,0.1705,0.4961,-0.0524,-25.31,-20.05,2.11,0.5272,32.3577,forward
16343,0.1661,0.4919,-0.0441,-29.40,-18.84,3.08,0.5211,35.0582,forward
16363,0.1698,0.4839,-0.0444,-32.92,-15.37,4.06,0.5147,36.5557,forward
16383,0.1971,0.4825,-0.0908,-38.46,-1.05,4.66,0.5291,38.7532,forward
16403,0.2062,0.4966,-0.0963,-48.27,28.72,7.40,0.5462,56.6567,forward
16423,0.1433,0.4868,-0.0490,-58.41,44.79,13.88,0.5098,74.9071,forward
16443,0.1128,0.4604,-0.0275,-68.21,37.85,16.00,0.4749,79.6338,forward
16463,0.0983,0.4548,-0.0272,-79.25,25.34,14.92,0.4661,84.5319,forward
16483,0.1335,0.4498,-0.0630,-88.64,25.91,17.13,0.4734,93.9252,forward
16503,0.1589,0.4357,-0.0692,-100.92,45.83,20.09,0.4689,112.6423,forward
16523,0.1038,0.4470,-0.0217,-121.15,58.72,25.94,0.4594,137.1011,forward
16543,0.0472,0.4026,0.0624,-130.21,37.50,35.24,0.4101,140.0114,forward
16563,0.0726,0.3721,0.0869,-137.60,8.11,39.76,0.3889,143.4602,forward
16583,0.1292,0.3568,0.1024,-144.14,-3.44,38.55,0.3930,149.2430,forward
16603,0.1470,0.3395,0.1243,-145.57,-8.11,41.30,0.3902,151.5341,forward
16623,0.2131,0.3329,0.0360,-151.94,13.15,48.52,0.3969,160.0385,forward
16643,0.2716,0.2958,0.0413,-167.83,68.38,48.50,0.4037,187.6067,forward
16663,0.1930,0.2369,0.1571,-175.97,104.34,46.31,0.3436,209.7508,forward
16683,0.0905,0.2073,0.2430,-177.02,94.38,46.21,0.3320,205.8658,forward
16703,0.0551,0.1781,0.2812,-177.39,61.74,45.10,0.3374,193.1652,forward
16723,0.0907,0.1387,0.2869,-174.92,33.66,40.73,0.3313,182.7240,forward
16743,0.1644,0.1091,0.2798,-172.31,32.79,34.87,0.3424,178.8309,forward
16763,0.1876,0.0890,0.2585,-168.67,54.00,29.71,0.3316,179.5796,forward
16783,0.1675,0.0885,0.2572,-171.25,85.37,26.38,0.3194,193.1630,forward
16803,0.0742,0.0306,0.4121,-173.79,88.44,22.73,0.4199,196.3175,forward
16823,-0.0435,-0.0428,0.4922,-162.50,33.21,21.69,0.4960,167.2746,forward
16843,-0.0365,-0.0334,0.4276,-149.36,-25.57,23.30,0.4305,153.3127,forward
16863,0.1281,-0.0116,0.3635,-143.10,-31.22,18.46,0.3856,147.6241,forward
16883,0.2469,-0.0454,0.4204,-138.63,14.27,18.73,0.4897,140.6124,forward
16903,0.1785,-0.1072,0.4915,-129.65,40.55,16.76,0.5337,136.8726,forward
16923,0.0333,-0.1000,0.5062,-117.33,36.29,14.44,0.5171,123.6587,forward
16943,0.0361,-0.1010,0.5280,-107.91,6.95,16.18,0.5387,109.3361,forward
16963,0.1251,-0.1676,0.5959,-90.76,-16.40,11.13,0.6316,92.9017,forward
16983,0.1738,-0.2008,0.5789,-69.82,-22.09,0.23,0.6369,73.2289,forward
17003,0.1805,-0.1814,0.5338,-49.42,-7.18,-8.85,0.5920,50.7171,forward
17023,0.1759,-0.1553,0.5200,-34.89,11.83,-12.14,0.5705,38.7855,forward
17043,0.1565,-0.1377,0.5271,-24.44,25.60,-11.42,0.5668,37.1938,forward
17063,0.0955,-0.1373,0.5311,-16.49,26.08,-11.79,0.5568,33.0267,forward
17083,0.0580,-0.1370,0.5332,-8.14,14.38,-9.25,0.5536,18.9380,forward
17103,0.0858,-0.1320,0.5083,0.53,2.23,-6.44,0.5321,6.8383,forward
17123,0.1190,-0.1178,0.4785,7.18,2.32,-6.96,0.5070,10.2636,forward
17143,0.1263,-0.1025,0.4670,12.53,9.48,-7.92,0.4946,17.6006,forward
17163,0.1064,-0.0967,0.4717,16.34,12.53,-8.20,0.4931,22.1627,forward
17183,0.0920,-0.0957,0.4613,20.18,7.36,-7.21,0.4800,22.6592,forward
17203,0.0981,-0.0847,0.4432,22.43,4.08,-6.96,0.4618,23.8343,forward
17223,0.1049,-0.0752,0.4355,23.27,1.28,-7.39,0.4543,24.4460,forward
17243,0.1094,-0.0692,0.4216,23.69,1.02,-6.75,0.4411,24.6581,forward
17263,0.1053,-0.0612,0.4174,23.37,1.65,-5.57,0.4348,24.0856,forward
17283,0.1047,-0.0624,0.4160,22.66,1.89,-4.90,0.4335,23.2576,forward
17303,0.0973,-0.0597,0.4164,21.50,-0.29,-5.21,0.4317,22.1195,forward
17323,0.0959,-0.0529,0.4149,20.29,-4.38,-4.61,0.4291,21.2637,forward
17343,0.1002,-0.0446,0.4073,18.78,-8.31,-4.00,0.4219,20.9193,forward
17363,0.1100,-0.0397,0.4070,17.22,-7.66,-3.63,0.4234,19.1968,forward
17383,0.1097,-0.0327,0.4070,15.05,-6.26,-2.67,0.4228,16.5205,forward
17403,0.1082,-0.0400,0.4078,13.74,-4.55,-2.60,0.4238,14.7049,forward
17423,0.1019,-0.0293,0.4005,12.96,-3.48,-2.95,0.4143,13.7407,forward
17443,0.1000,-0.0275,0.4031,12.00,-2.95,-2.55,0.4162,12.6168,forward
17463,0.0939,-0.0269,0.4023,11.05,-2.96,-1.76,0.4140,11.5773,forward
17483,0.0924,-0.0281,0.4012,9.80,-5.30,-0.73,0.4127,11.1657,forward
17503,0.0933,-0.0261,0.4041,8.93,-6.47,0.56,0.4155,11.0449,forward
17523,0.0931,-0.0294,0.4056,8.11,-8.08,0.78,0.4172,11.4697,forward
17543,0.1021,-0.0326,0.4082,8.20,-8.64,0.90,0.4220,11.9456,forward
17563,0.0997,-0.0315,0.4091,8.41,-9.13,0.61,0.4222,12.4294,forward
17583,0.1088,-0.0299,0.4036,8.12,-9.39,0.72,0.4190,12.4356,forward
17603,0.1163,-0.0281,0.4113,7.77,-8.70,1.05,0.4283,11.7144,forward
17623,0.1188,-0.0275,0.4064,7.45,-6.43,1.50,0.4243,9.9529,forward
17643,0.1168,-0.0291,0.4053,6.92,-4.09,1.25,0.4228,8.1326,forward
17663,0.1089,-0.0339,0.4169,6.90,-4.18,0.11,0.4322,8.0704,forward
17683,0.1061,-0.0316,0.4128,7.39,-6.81,0.08,0.4274,10.0485,forward
17703,0.1123,-0.0271,0.4071,7.28,-8.43,0.41,0.4232,11.1457,forward
17723,0.1161,-0.0229,0.4037,6.46,-7.19,0.12,0.4207,9.6659,forward
17743,0.1173,-0.0260,0.4071,5.89,-5.54,0.44,0.4245,8.1018,forward
17763,0.1183,-0.0248,0.4104,5.39,-4.75,0.70,0.4278,7.2168,forward
17783,0.1143,-0.0173,0.4055,4.12,-3.47,1.53,0.4217,5.5976,forward
17803,0.1121,-0.0226,0.4043,3.07,-3.80,1.94,0.4201,5.2562,forward
17823,0.1140,-0.0247,0.4065,2.78,-4.41,1.60,0.4229,5.4551,forward
17843,0.1146,-0.0216,0.4054,2.61,-4.40,1.36,0.4218,5.2910,forward
17863,0.1144,-0.0242,0.4093,2.38,-2.89,0.78,0.4257,3.8216,forward
17883,0.1119,-0.0256,0.4045,2.32,-2.49,0.75,0.4205,3.4839,left
17903,0.1108,-0.0271,0.4064,2.24,-2.31,1.60,0.4221,3.5946,left
17923,0.1151,-0.0352,0.4097,2.34,-2.96,1.89,0.4270,4.2205,left
17943,0.1195,-0.0288,0.4139,2.96,-1.74,1.10,0.4318,3.6069,left
17963,0.1193,-0.0199,0.4109,3.74,-1.65,0.49,0.4283,4.1168,left
17983,0.1185,-0.0226,0.4144,3.48,-2.32,0.05,0.4316,4.1838,left
18003,0.1167,-0.0242,0.4117,3.89,-2.38,-0.49,0.4286,4.5899,left
18023,0.1149,-0.0193,0.4132,4.38,-3.11,-0.50,0.4293,5.3994,left
18043,0.1221,-0.0167,0.4064,4.09,-2.89,-0.44,0.4246,5.0263,left
18063,0.1279,-0.0168,0.4092,4.05,-1.34,-0.66,0.4290,4.3133,left
18083,0.1240,-0.0138,0.4209,4.46,-0.73,-1.36,0.4390,4.7178,left
18103,0.1204,-0.0183,0.4124,4.63,-2.09,-1.95,0.4300,5.4400,left
18123,0.1296,-0.0175,0.4080,4.78,-1.51,-2.12,0.4284,5.4427,left
18143,0.1257,-0.0138,0.4061,5.18,-0.27,-2.64,0.4254,5.8171,left
18163,0.1128,-0.0125,0.4119,5.30,-0.66,-2.21,0.4272,5.7790,left
18183,0.1171,-0.0101,0.4081,4.55,-2.29,-2.15,0.4247,5.5297,left
18203,0.1233,-0.0059,0.3988,4.31,-1.69,-2.44,0.4175,5.2321,left
18223,0.1147,-0.0031,0.4014,3.04,-0.23,-2.35,0.4175,3.8485,left
18243,0.1046,-0.0085,0.4067,2.06,-0.79,-1.53,0.4201,2.6850,left
18263,0.1073,-0.0035,0.4062,1.62,-1.86,-0.70,0.4202,2.5654,left
18283,0.1125,-0.0052,0.4023,0.23,-1.85,0.52,0.4178,1.9325,left
18303,0.1147,-0.0060,0.4077,-0.41,-1.47,0.75,0.4236,1.6964,left
18323,0.1116,-0.0095,0.4233,-0.46,-1.94,0.99,0.4379,2.2258,left
18343,0.1134,-0.0083,0.4180,-0.44,-3.89,1.28,0.4332,4.1228,left
18363,0.1194,-0.0137,0.4182,0.12,-3.66,1.21,0.4351,3.8595,left
18383,0.1195,-0.0142,0.4207,0.93,-3.21,0.96,0.4375,3.4744,left
18403,0.1163,-0.0082,0.4230,1.21,-4.37,1.21,0.4388,4.6877,left
18423,0.1216,-0.0117,0.4161,2.31,-5.39,0.75,0.4337,5.9092,left
18443,0.1228,-0.0045,0.4093,3.19,-4.20,0.12,0.4274,5.2748,left
18463,0.1210,-0.0146,0.4119,3.15,-3.95,-0.18,0.4295,5.0557,left
18483,0.1204,-0.0133,0.4070,4.26,-4.46,-0.29,0.4246,6.1727,left
18503,0.1221,-0.0016,0.3977,4.02,-3.02,-0.61,0.4160,5.0629,left
18523,0.1167,-0.0048,0.3973,2.79,-1.36,-0.35,0.4141,3.1266,left
18543,0.1140,-0.0087,0.4019,2.84,-2.21,0.58,0.4178,3.6471,left
18563,0.1062,-0.0043,0.3976,1.71,-3.11,1.76,0.4115,3.9631,left
18583,0.1099,-0.0107,0.4054,0.60,-3.71,2.40,0.4202,4.4568,left
18603,0.1180,-0.0079,0.4073,1.25,-4.47,1.73,0.4242,4.9552,left
18623,0.1193,-0.0070,0.4032,1.22,-3.07,1.62,0.4205,3.6780,left
18643,0.1168,-0.0073,0.4139,0.93,-1.50,1.60,0.4302,2.3824,left
18663,0.1157,-0.0151,0.4144,1.60,-2.47,2.06,0.4305,3.5965,left
18683,0.1250,-0.0046,0.4108,2.00,-2.24,2.15,0.4294,3.6974,left
18703,0.1222,-0.0065,0.4120,2.47,-0.27,1.60,0.4298,2.9601,left
18723,0.1095,-0.0079,0.4216,3.04,-0.05,1.33,0.4357,3.3161,left
18743,0.1118,-0.0073,0.4189,4.37,-1.69,2.27,0.4337,5.2069,left
18763,0.1053,0.0004,0.4242,5.19,-0.73,3.37,0.4371,6.2343,left
18783,0.1021,-0.0005,0.4216,6.44,0.05,5.42,0.4338,8.4194,left
18803,0.0964,0.0022,0.4250,8.09,1.74,8.20,0.4359,11.6498,left
18823,0.0836,0.0045,0.4254,9.22,1.45,10.84,0.4336,14.3051,left
18843,0.0837,0.0033,0.4285,10.63,0.66,13.74,0.4366,17.3822,left
18863,0.0850,-0.0043,0.4315,11.85,3.42,17.33,0.4398,21.2679,left
18883,0.0883,0.0054,0.4229,13.19,7.98,21.31,0.4320,26.3058,left
18903,0.0781,0.0120,0.4242,14.20,12.27,26.26,0.4315,32.2774,left
18923,0.0520,0.0149,0.4379,14.49,12.58,31.65,0.4412,37.0112,left
18943,0.0123,0.0052,0.4489,16.09,7.27,38.89,0.4491,42.7064,left
18963,0.0094,0.0016,0.4473,18.55,-1.80,47.74,0.4474,51.2492,left
18983,0.0391,0.0127,0.4335,20.66,-4.38,54.50,0.4354,58.4513,left
19003,0.0469,0.0090,0.4377,23.21,-1.57,62.05,0.4403,66.2622,left
19023,0.0419,0.0146,0.4286,23.53,0.26,69.04,0.4309,72.9373,left
19043,0.0310,0.0105,0.4237,24.85,0.93,76.60,0.4250,80.5326,left
19063,0.0464,0.0018,0.4164,25.92,-0.12,83.05,0.4190,87.0053,left
19083,0.0565,0.0048,0.4014,25.79,3.19,89.73,0.4054,93.4116,left
19103,0.0505,0.0051,0.3964,23.88,7.73,97.80,0.3996,100.9701,left
19123,0.0297,-0.0109,0.4242,21.71,10.55,105.48,0.4254,108.2074,left
19143,0.0212,-0.0232,0.4269,23.28,4.81,115.79,0.4280,118.2018,left
19163,0.0594,-0.0200,0.4141,22.72,-1.39,120.99,0.4188,123.1145,left
19183,0.0886,-0.0259,0.4216,23.85,3.63,125.04,0.4316,127.3438,left
19203,0.1290,-0.0325,0.4290,26.26,6.98,126.44,0.4491,129.3291,left
19223,0.1346,-0.0331,0.4189,26.82,14.75,127.30,0.4413,130.9265,left
19243,0.1294,-0.0294,0.4077,26.66,20.24,126.79,0.4288,131.1377,left
19263,0.1368,-0.0359,0.4133,25.42,20.53,124.79,0.4369,129.0013,left
19283,0.1473,-0.0409,0.4076,25.11,17.15,119.36,0.4353,123.1715,left
19303,0.1527,-0.0228,0.3837,24.87,15.40,115.51,0.4136,119.1584,left
19323,0.1627,-0.0173,0.3893,20.47,16.37,108.84,0.4223,111.9513,left
19343,0.1477,-0.0072,0.3834,16.93,15.51,104.46,0.4110,106.9521,left
19363,0.1621,-0.0063,0.3783,12.53,8.11,97.53,0.4116,98.6625,left
19383,0.1873,0.0101,0.3745,7.24,4.43,87.28,0.4188,87.6938,left
19403,0.1582,-0.0027,0.3982,5.47,3.45,79.10,0.4285,79.3629,left
19423,0.1370,0.0002,0.3970,1.04,-4.11,72.89,0.4199,73.0085,left
19443,0.1627,-0.0181,0.4106,0.53,-20.17,63.21,0.4421,66.3479,left
19463,0.1891,-0.0173,0.4150,0.93,-34.58,49.07,0.4564,60.0366,left
19483,0.2491,-0.0181,0.3972,1.97,-47.30,30.89,0.4692,56.5231,left
19503,0.2996,-0.0073,0.3744,1.73,-40.41,13.01,0.4795,42.4891,left
19523,0.3094,-0.0012,0.3601,-0.90,-33.63,-7.37,0.4748,34.4442,left
19543,0.2379,-0.0031,0.3796,-3.89,-20.00,-19.24,0.4480,28.0215,left
19563,0.1947,0.0016,0.3893,-4.31,-14.84,-29.31,0.4353,33.1361,left
19583,0.1802,-0.0062,0.3998,-4.14,-12.72,-38.12,0.4386,40.3999,left
19603,0.1630,-0.0194,0.4009,-3.69,-11.02,-45.56,0.4332,47.0172,left
19623,0.1442,-0.0034,0.3916,-3.83,-18.06,-49.80,0.4173,53.1138,left
19643,0.2026,0.0175,0.3407,-7.11,-25.89,-54.82,0.3968,61.0474,left
19663,0.2820,0.0134,0.3217,-13.69,-18.82,-66.29,0.4280,70.2586,left
19683,0.2635,-0.0127,0.3502,-18.38,-7.83,-81.62,0.4385,84.0284,left
19703,0.1976,-0.0297,0.3851,-19.76,-12.18,-93.89,0.4339,96.7194,left
19723,0.2015,-0.0223,0.3733,-21.24,-26.29,-103.85,0.4248,109.2082,left
19743,0.2455,-0.0071,0.3429,-26.24,-28.72,-111.65,0.4218,118.2325,left
19763,0.2699,-0.0128,0.3445,-32.32,-14.20,-119.73,0.4378,124.8212,left
19783,0.2035,-0.0204,0.3635,-36.63,-5.91,-123.74,0.4171,129.1823,left
19803,0.1682,-0.0255,0.3915,-38.63,-12.17,-125.15,0.4269,131.5344,left
19823,0.1600,-0.0320,0.4120,-40.37,-23.02,-125.31,0.4431,133.6519,left
19843,0.1755,-0.0413,0.4060,-40.08,-28.52,-129.54,0.4442,138.5661,left
19863,0.1888,-0.0350,0.4072,-38.82,-24.27,-131.85,0.4502,139.5719,left
19883,0.1472,-0.0265,0.4250,-37.77,-13.40,-128.79,0.4506,134.8859,left
19903,0.1066,-0.0253,0.4451,-37.53,-17.51,-123.21,0.4583,129.9794,left
19923,0.1213,-0.0190,0.4305,-37.50,-24.75,-116.72,0.4477,125.0657,left
19943,0.1351,-0.0295,0.4227,-34.58,-21.48,-112.46,0.4448,119.5994,left
19963,0.1183,-0.0186,0.4525,-30.75,-15.76,-107.86,0.4681,113.2609,left
19983,-0.0073,-0.0177,0.4817,-26.06,-19.44,-95.89,0.4821,101.2541,left
20003,0.0234,-0.0027,0.4534,-23.30,-48.34,-83.62,0.4540,99.3537,left
20023,0.1680,0.0153,0.3726,-21.98,-50.21,-79.28,0.4090,96.3870,left
20043,0.2565,0.0310,0.3557,-21.07,-14.47,-76.69,0.4396,80.8348,left
20063,0.2040,0.0229,0.3779,-22.27,20.00,-72.47,0.4301,78.4127,left
20083,0.1182,0.0034,0.4186,-21.25,31.44,-63.21,0.4350,73.7212,left
20103,0.0823,-0.0042,0.4265,-18.99,23.44,-56.20,0.4344,63.7823,left
20123,0.0789,0.0012,0.4254,-14.67,10.35,-51.80,0.4327,54.8252,left
20143,0.1025,0.0031,0.4202,-11.68,6.55,-47.40,0.4325,49.2595,left
20163,0.1107,0.0057,0.4341,-7.15,12.03,-43.16,0.4480,45.3718,left
20183,0.0929,0.0066,0.4513,-1.54,13.27,-37.21,0.4608,39.5309,left
20203,0.0848,0.0201,0.4354,1.62,13.91,-30.70,0.4441,33.7445,left
20223,0.0762,0.0299,0.4210,2.82,10.56,-24.02,0.4289,26.3880,left
20243,0.0895,0.0334,0.4156,4.03,9.30,-16.61,0.4265,19.4578,left
20263,0.1031,0.0358,0.4109,4.70,9.19,-11.01,0.4251,15.0914,left
20283,0.1051,0.0413,0.4082,5.08,10.67,-5.83,0.4235,13.1813,left
20303,0.1155,0.0424,0.4088,4.69,10.61,-1.68,0.4269,11.7207,left
20323,0.1088,0.0382,0.4059,4.05,9.16,1.59,0.4219,10.1391,left
20343,0.1132,0.0397,0.4111,3.50,3.47,4.55,0.4283,6.7032,left
20363,0.1268,0.0342,0.4100,2.29,-1.37,6.02,0.4306,6.5815,left
20383,0.1460,0.0312,0.4070,1.71,-3.69,6.58,0.4335,7.7377,left
20403,0.1565,0.0322,0.4031,1.07,-0.76,7.37,0.4336,7.4901,left
20423,0.1443,0.0265,0.4054,0.69,1.04,8.26,0.4311,8.3528,left
20443,0.1422,0.0184,0.4141,0.89,0.58,8.89,0.4382,8.9483,left
20463,0.1514,0.0220,0.4171,1.94,-0.49,8.66,0.4443,8.8844,left
20483,0.1470,0.0226,0.4147,2.56,-0.06,7.86,0.4405,8.2706,left
20503,0.1467,0.0247,0.4059,2.75,-0.89,7.02,0.4323,7.5932,left
20523,0.1542,0.0256,0.4016,3.10,0.40,6.37,0.4310,7.0918,left
20543,0.1473,0.0258,0.3993,3.13,1.18,5.94,0.4264,6.8153,left
20563,0.1410,0.0270,0.4026,2.64,1.08,5.95,0.4274,6.6033,right
20583,0.1414,0.0253,0.4016,2.79,-0.43,6.75,0.4265,7.3161,right
20603,0.1370,0.0282,0.3962,1.69,-0.73,6.61,0.4202,6.8637,right
20623,0.1373,0.0173,0.3975,0.92,-1.85,6.76,0.4209,7.0707,right
20643,0.1411,0.0211,0.4020,0.99,-2.92,6.56,0.4265,7.2516,right
20663,0.1464,0.0247,0.3982,0.78,-3.24,6.06,0.4250,6.9151,right
20683,0.1456,0.0240,0.3989,0.12,-2.85,6.08,0.4254,6.7147,right
20703,0.1427,0.0197,0.4037,-0.08,-2.43,6.14,0.4286,6.6005,right
20723,0.1469,0.0197,0.4048,0.67,-2.26,5.18,0.4310,5.6871,right
20743,0.1475,0.0166,0.4019,0.89,-1.80,4.09,0.4284,4.5575,right
20763,0.1451,0.0212,0.3973,0.55,-1.25,4.14,0.4236,4.3575,right
20783,0.1399,0.0212,0.3976,0.73,-0.14,4.76,0.4220,4.8214,right
20803,0.1390,0.0195,0.4023,1.27,0.29,4.78,0.4261,4.9523,right
20823,0.1394,0.0168,0.4089,1.07,-0.24,4.38,0.4324,4.5167,right
20843,0.1403,0.0206,0.4075,1.57,-1.47,3.88,0.4314,4.4338,right
20863,0.1398,0.0210,0.4032,2.02,-2.44,4.12,0.4273,5.1981,right
20883,0.1421,0.0225,0.4012,1.63,-2.15,3.91,0.4263,4.7516,right
20903,0.1431,0.0200,0.4001,1.39,-2.15,4.17,0.4254,4.8924,right
20923,0.1442,0.0190,0.4033,0.99,-2.03,4.31,0.4287,4.8625,right
20943,0.1459,0.0208,0.3984,0.43,-1.24,4.63,0.4248,4.8074,right
20963,0.1431,0.0229,0.3989,-0.40,-1.66,5.08,0.4244,5.3641,right
20983,0.1401,0.0254,0.3920,-1.59,-2.67,5.40,0.4170,6.2345,right
21003,0.1425,0.0236,0.3964,-2.81,-4.76,5.76,0.4218,7.9818,right
21023,0.1550,0.0211,0.3948,-4.15,-7.62,5.89,0.4247,10.4887,right
21043,0.1566,0.0175,0.4038,-4.75,-8.40,5.56,0.4335,11.1327,right
21063,0.1533,0.0221,0.4036,-5.54,-9.74,4.76,0.4323,12.1770,right
21083,0.1693,0.0165,0.4043,-6.52,-14.35,2.47,0.4386,15.9553,right
21103,0.1831,0.0123,0.4004,-6.55,-16.05,0.43,0.4404,17.3363,right
21123,0.1982,0.0179,0.3829,-8.29,-14.58,-1.83,0.4316,16.8719,right
21143,0.2181,0.0087,0.3872,-11.27,-11.45,-5.42,0.4445,16.9539,right
21163,0.2275,-0.0045,0.3873,-12.98,-8.58,-10.56,0.4492,18.8053,right
21183,0.2297,0.0040,0.3842,-15.08,-12.12,-17.37,0.4476,26.0063,right
21203,0.2443,0.0007,0.3856,-18.20,-17.30,-24.60,0.4565,35.1473,right
21223,0.2897,-0.0156,0.3842,-19.59,-17.82,-36.14,0.4814,44.7999,right
21243,0.3014,-0.0165,0.3740,-20.73,-12.15,-48.11,0.4806,53.7755,right
21263,0.2858,-0.0151,0.3772,-22.76,-6.64,-58.31,0.4735,62.9427,right
21283,0.2629,-0.0239,0.3870,-23.76,-4.75,-67.51,0.4685,71.7264,right
21303,0.2592,-0.0320,0.3857,-24.40,-4.98,-76.20,0.4658,80.1635,right
21323,0.2664,-0.0317,0.3767,-24.75,-0.11,-85.57,0.4625,89.0794,right
21343,0.2439,-0.0410,0.3877,-24.41,11.97,-93.82,0.4599,97.6771,right
21363,0.1947,-0.0463,0.4089,-23.31,16.99,-98.27,0.4553,102.4215,right
21383,0.1793,-0.0436,0.4061,-21.65,13.69,-102.73,0.4461,105.8785,right
21403,0.1667,-0.0425,0.3984,-21.16,13.16,-107.63,0.4340,110.4805,right
21423,0.1302,-0.0515,0.4067,-20.63,15.79,-107.16,0.4302,110.2632,right
21443,0.1255,-0.0590,0.4083,-17.25,17.66,-104.03,0.4312,106.9205,right
21463,0.1389,-0.0525,0.3901,-14.46,31.40,-99.83,0.4174,105.6491,right
21483,0.0811,-0.0414,0.4164,-12.49,44.26,-93.18,0.4262,103.9065,right
21503,0.0051,-0.0358,0.4347,-11.98,33.40,-87.59,0.4362,94.5046,right
21523,-0.0043,-0.0343,0.4388,-9.04,9.45,-82.20,0.4402,83.2321,right
21543,0.0684,-0.0151,0.4122,-6.69,-8.02,-80.03,0.4181,80.7084,right
21563,0.1310,0.0011,0.3864,-6.23,0.73,-76.56,0.4080,76.8214,right
21583,0.0930,0.0004,0.3942,-7.83,17.88,-73.33,0.4050,75.8814,right
21603,0.0089,-0.0024,0.4188,-9.94,12.32,-65.85,0.4189,67.7233,right
21623,0.0336,-0.0048,0.4183,-9.63,-5.65,-59.15,0.4197,60.1901,right
21643,0.0887,-0.0038,0.4061,-10.64,-10.43,-56.41,0.4157,58.3464,right
21663,0.1017,-0.0081,0.4025,-9.97,-1.97,-54.43,0.4152,55.3680,right
21683,0.0675,-0.0070,0.4033,-10.34,3.44,-49.98,0.4090,51.1576,right
21703,0.0618,-0.0048,0.4095,-10.75,2.73,-44.47,0.4142,45.8352,right
21723,0.0588,-0.0060,0.4099,-10.89,1.92,-39.77,0.4142,41.2786,right
21743,0.0303,-0.0035,0.4115,-11.68,1.15,-33.45,0.4126,35.4492,right
21763,0.0334,-0.0071,0.4205,-12.29,-3.82,-25.30,0.4219,28.3829,right
21783,0.0905,-0.0074,0.4146,-10.79,-5.27,-20.82,0.4244,24.0397,right
21803,0.1086,-0.0056,0.4095,-9.39,5.05,-18.66,0.4237,21.4886,right
21823,0.0790,-0.0027,0.4141,-8.12,13.59,-15.76,0.4215,22.3347,right
21843,0.0588,-0.0184,0.4287,-5.80,11.57,-13.71,0.4331,18.8558,right
21863,0.0515,-0.0051,0.4316,-5.57,1.66,-11.18,0.4347,12.5982,right
21883,0.0573,-0.0132,0.4323,-2.53,-4.60,-6.60,0.4362,8.4285,right
21903,0.0488,-0.0107,0.4297,-1.08,-0.27,-1.37,0.4326,1.7716,right
21923,0.0153,-0.0122,0.4409,-0.64,3.07,6.11,0.4414,6.8645,right
21943,0.0234,-0.0258,0.4530,2.49,-7.47,11.04,0.4543,13.5562,right
21963,0.0701,-0.0234,0.4373,5.28,-10.89,17.18,0.4435,21.0095,right
21983,0.0806,-0.0194,0.4155,6.44,-1.54,22.08,0.4237,23.0489,right
22003,0.0719,-0.0251,0.4314,8.98,13.01,28.81,0.4381,32.8596,right
22023,0.0162,-0.0229,0.4479,11.77,21.80,37.80,0.4488,45.1975,right
22043,-0.0198,-0.0150,0.4518,13.13,14.46,46.98,0.4525,50.8751,right
22063,0.0068,-0.0179,0.4500,14.89,3.94,54.98,0.4504,57.0927,right
22083,0.0490,-0.0194,0.4261,17.18,4.27,59.36,0.4294,61.9414,right
22103,0.0542,-0.0156,0.4160,18.20,13.56,63.91,0.4198,67.8179,right
22123,0.0376,-0.0115,0.4240,19.21,18.98,69.71,0.4258,74.7561,right
22143,0.0221,-0.0079,0.4279,18.96,15.33,75.83,0.4285,79.6556,right
22163,0.0203,-0.0166,0.4331,18.76,10.69,81.07,0.4339,83.8952,right
22183,0.0457,-0.0234,0.4315,20.73,7.19,84.41,0.4346,87.2180,right
22203,0.0640,-0.0131,0.4186,22.18,8.96,87.08,0.4236,90.3107,right
22223,0.0665,0.0073,0.4064,22.12,11.33,89.48,0.4118,92.8685,right
22243,0.0575,-0.0059,0.4208,20.67,13.63,92.79,0.4247,96.0412,right
22263,0.0563,-0.0239,0.4512,23.34,9.80,94.41,0.4553,97.7479,right
22283,0.0729,-0.0100,0.4419,27.45,2.78,93.01,0.4480,97.0137,right
22303,0.0927,-0.0007,0.4296,29.31,3.51,92.73,0.4394,97.3188,right
22323,0.1174,-0.0057,0.4335,31.33,9.18,90.85,0.4491,96.5416,right
22343,0.0948,-0.0106,0.4496,33.54,14.66,88.85,0.4596,96.0993,right
22363,0.0629,-0.0082,0.4434,36.05,11.08,89.79,0.4479,97.3844,right
22383,0.0919,0.0071,0.4244,37.08,5.57,90.99,0.4343,98.4169,right
22403,0.1112,0.0170,0.4153,36.75,10.35,91.28,0.4302,98.9447,right
22423,0.0916,0.0153,0.4178,35.86,13.34,90.64,0.4280,98.3870,right
22443,0.0747,0.0197,0.4153,35.47,8.37,90.93,0.4224,97.9608,right
22463,0.0977,0.0292,0.4114,34.20,3.73,90.58,0.4238,96.8926,right
22483,0.1122,0.0314,0.4092,33.76,-2.17,87.42,0.4254,93.7357,right
22503,0.1326,0.0391,0.3960,33.73,-7.92,82.58,0.4194,89.5525,right
22523,0.1479,0.0481,0.3687,32.72,-9.65,76.87,0.4001,84.0986,right
22543,0.1741,0.0615,0.3571,30.15,-7.07,70.11,0.4020,76.6428,right
22563,0.1797,0.0610,0.3578,26.64,-0.73,63.45,0.4050,68.8204,right
22583,0.1707,0.0768,0.3579,22.89,0.34,57.44,0.4039,61.8276,right
22603,0.1517,0.0831,0.3627,19.24,-1.95,51.31,0.4018,54.8351,right
22623,0.1602,0.0760,0.3593,15.85,-9.97,43.50,0.4006,47.3545,right
22643,0.1703,0.0837,0.3584,12.35,-11.68,35.98,0.4055,39.7977,right
22663,0.1769,0.0869,0.3624,8.63,-13.91,28.32,0.4125,32.7094,right
22683,0.1644,0.0858,0.3652,5.22,-14.20,22.24,0.4096,26.9011,right
22703,0.1636,0.0864,0.3623,2.43,-16.67,16.21,0.4068,23.3822,right
22723,0.1738,0.0890,0.3702,0.34,-16.11,10.18,0.4186,19.0589,right
22743,0.1776,0.0900,0.3713,-2.40,-14.05,5.65,0.4213,15.3277,right
22763,0.1852,0.0852,0.3787,-3.39,-7.36,0.69,0.4300,8.1309,right
22783,0.1746,0.0850,0.3844,-4.76,2.05,-3.85,0.4306,6.4558,right
22803,0.1472,0.0790,0.3909,-5.51,5.02,-7.24,0.4251,10.3911,right
22823,0.1260,0.0809,0.4034,-5.77,3.63,-9.25,0.4303,11.4937,right
22843,0.1104,0.0784,0.4175,-6.09,-0.40,-10.34,0.4389,12.0040,right
22863,0.1023,0.0741,0.4147,-5.66,-5.31,-10.93,0.4335,13.4091,right
22883,0.0984,0.0720,0.4232,-4.18,-9.13,-10.66,0.4404,14.6428,right
22903,0.1158,0.0769,0.4183,-2.72,-8.37,-10.24,0.4408,13.5029,right
22923,0.1261,0.0791,0.4135,-1.97,-2.72,-9.25,0.4394,9.8418,right
22943,0.1119,0.0803,0.4138,-2.17,2.31,-7.45,0.4362,8.0946,right
22963,0.0978,0.0814,0.4166,-1.77,1.86,-5.10,0.4356,5.7103,right
22983,0.0989,0.0785,0.4181,-1.18,-1.68,-4.06,0.4367,4.5491,right
23003,0.1053,0.0800,0.4133,-0.89,-4.78,-3.05,0.4340,5.7396,right
23023,0.1150,0.0793,0.4105,-0.73,-4.87,-2.23,0.4336,5.4060,right
23043,0.1179,0.0807,0.4092,-0.52,-2.64,-1.63,0.4334,3.1487,right
23063,0.1174,0.0791,0.4094,0.09,-1.47,-1.82,0.4332,2.3361,right
23083,0.1104,0.0770,0.4160,1.22,-2.60,-2.21,0.4372,3.6233,right
23103,0.1086,0.0770,0.4097,2.08,-4.73,-2.32,0.4308,5.6653,right
23123,0.1135,0.0797,0.4144,2.37,-5.79,-1.33,0.4370,6.3910,right
23143,0.1256,0.0801,0.3971,2.44,-3.74,-1.05,0.4241,4.5900,stop
23163,0.1154,0.0842,0.3995,2.64,-1.47,-0.90,0.4243,3.1521,stop
23183,0.1066,0.0786,0.4022,2.90,-3.13,-1.04,0.4235,4.3918,stop
23203,0.1072,0.0853,0.3940,3.05,-6.38,-1.53,0.4172,7.2374,stop
23223,0.1240,0.0869,0.3893,2.60,-7.04,-1.94,0.4177,7.7480,stop
23243,0.1259,0.0856,0.3873,1.62,-5.50,-2.11,0.4162,6.1046,stop
23263,0.1257,0.0856,0.3921,0.41,-2.98,-1.66,0.4206,3.4355,stop
23283,0.1224,0.0830,0.3953,-0.06,-1.57,-1.56,0.4220,2.2140,stop
23303,0.1204,0.0857,0.3948,-1.05,-0.70,-1.37,0.4215,1.8684,stop
23323,0.1140,0.0863,0.3926,-2.23,-1.71,-1.15,0.4178,3.0337,stop
23343,0.1206,0.0868,0.3979,-2.12,-2.46,-1.69,0.4248,3.6629,stop
23363,0.1207,0.0901,0.3959,-2.93,-2.84,-1.05,0.4236,4.2150,stop
23383,0.1268,0.0880,0.3981,-4.00,-2.92,-0.82,0.4270,5.0183,stop
23403,0.1306,0.0865,0.3901,-5.18,-2.06,-1.04,0.4204,5.6668,stop
23423,0.1292,0.0863,0.3868,-5.79,-1.08,-1.66,0.4169,6.1176,stop
23443,0.1289,0.0852,0.3859,-7.37,-0.95,-1.88,0.4157,7.6680,stop
23463,0.1323,0.0781,0.3898,-8.67,-0.79,-3.24,0.4190,9.2901,stop
23483,0.1366,0.0729,0.3953,-8.52,-0.72,-5.36,0.4245,10.0899,stop
23503,0.1440,0.0778,0.3794,-9.92,-0.18,-7.04,0.4132,12.1675,stop
23523,0.1469,0.0756,0.3688,-12.46,1.24,-8.93,0.4041,15.3785,stop
23543,0.1490,0.0759,0.3617,-15.69,3.18,-11.53,0.3985,19.7300,stop
23563,0.1343,0.0734,0.3578,-19.34,1.48,-14.52,0.3891,24.2316,stop
23583,0.1332,0.0682,0.3506,-24.21,-4.64,-16.61,0.3812,29.7281,stop
23603,0.1547,0.0671,0.3279,-30.93,-10.29,-19.56,0.3687,38.0147,stop
23623,0.1599,0.0703,0.2964,-40.60,-14.32,-23.79,0.3440,49.1819,stop
23643,0.1508,0.0662,0.2719,-52.53,-16.93,-26.92,0.3178,61.4085,stop
23663,0.1465,0.0491,0.2692,-66.08,-20.43,-28.87,0.3103,74.9457,stop
23683,0.1125,0.0148,0.2682,-77.73,-21.86,-31.08,0.2912,86.5182,stop
23703,0.1127,-0.0009,0.2539,-89.82,-23.85,-29.94,0.2778,97.6324,stop
23723,0.1450,-0.0120,0.2372,-104.17,-20.11,-27.25,0.2783,109.5350,stop
23743,0.1515,-0.0441,0.2319,-117.83,-8.06,-24.37,0.2805,120.5948,stop
23763,0.0925,-0.0756,0.2388,-132.98,0.64,-18.69,0.2670,134.2852,stop
23783,0.0172,-0.1455,0.2927,-143.86,1.51,-11.13,0.3273,144.3004,stop
23803,0.0524,-0.2032,0.2852,-150.00,-3.79,-6.47,0.3541,150.1873,stop
23823,0.1155,-0.2113,0.2496,-156.44,8.15,-4.98,0.3468,156.7341,stop
23843,0.0848,-0.2240,0.2426,-166.90,27.45,5.15,0.3409,169.2213,stop
23863,0.0383,-0.2616,0.2551,-177.71,29.19,16.81,0.3674,180.8742,stop
23883,0.0319,-0.3090,0.2510,-188.03,17.73,17.37,0.3993,189.6616,stop
23903,0.0482,-0.3561,0.2614,-193.86,11.51,13.27,0.4443,194.6567,stop
23923,0.0742,-0.3794,0.2313,-197.48,14.92,12.11,0.4505,198.4131,stop
23943,0.0692,-0.3840,0.2167,-203.04,21.25,15.27,0.4463,204.7174,stop
23963,0.0616,-0.4373,0.2197,-209.91,25.88,20.18,0.4932,212.4584,stop
23983,0.0597,-0.5050,0.2545,-210.32,25.31,18.27,0.5687,212.6252,stop
24003,0.0363,-0.5304,0.2719,-204.40,17.13,15.62,0.5971,205.7072,stop
24023,0.0431,-0.5588,0.2759,-196.76,8.11,13.45,0.6247,197.3891,stop
24043,0.0529,-0.5754,0.2521,-187.91,9.97,14.49,0.6304,188.7296,stop
24063,0.0669,-0.5699,0.2209,-186.78,16.70,15.01,0.6149,188.1235,stop
24083,0.0908,-0.6182,0.2489,-170.12,25.77,16.84,0.6726,172.8851,stop
24103,0.0455,-0.6263,0.2639,-152.38,21.21,19.91,0.6812,155.1329,stop
24123,0.0437,-0.6310,0.2742,-134.69,12.11,23.21,0.6894,137.2068,stop
24143,0.0923,-0.6304,0.2566,-118.87,13.50,15.04,0.6868,120.5754,stop
24163,0.0732,-0.6183,0.2429,-103.27,11.25,9.44,0.6683,104.3060,stop
24183,0.0734,-0.6099,0.2261,-85.01,1.65,12.52,0.6545,85.9404,stop
24203,0.0842,-0.5940,0.1824,-66.93,1.16,16.61,0.6270,68.9714,stop
24223,0.0903,-0.5928,0.1735,-50.41,8.46,14.75,0.6242,53.2018,stop
24243,0.0922,-0.6069,0.2013,-33.60,9.18,6.61,0.6461,35.4550,stop
24263,0.0936,-0.6062,0.2042,-17.13,4.58,-2.24,0.6465,17.8730,stop
24283,0.0748,-0.5885,0.1901,-1.10,-0.18,-2.20,0.6229,2.4648,stop
24303,0.1281,-0.5864,0.1802,15.57,4.79,-4.70,0.6267,16.9587,stop
24323,0.1124,-0.5840,0.1650,31.01,13.91,-7.25,0.6172,34.7492,stop
24343,0.0927,-0.5776,0.1643,47.80,17.31,-5.40,0.6077,51.1267,stop
24363,0.1080,-0.5952,0.1736,66.24,21.36,-9.91,0.6294,70.3042,stop
24383,0.0905,-0.5970,0.2053,85.10,22.31,-16.98,0.6378,89.5970,stop
24403,0.0959,-0.5898,0.2324,102.00,18.43,-21.10,0.6412,105.7769,stop
24423,0.0841,-0.5809,0.2318,113.74,15.18,-22.20,0.6311,116.8758,stop
24443,0.0594,-0.5660,0.2146,123.39,6.67,-22.55,0.6083,125.6102,stop
24463,0.0441,-0.5696,0.2106,133.94,-2.93,-26.00,0.6089,136.4706,stop
24483,0.0507,-0.5699,0.2177,144.79,-10.15,-31.28,0.6122,148.4821,stop
24503,0.0422,-0.5603,0.2449,155.82,-13.63,-34.06,0.6129,160.0778,stop
24523,0.0470,-0.5494,0.2507,163.16,-18.99,-33.07,0.6058,167.5576,stop
24543,0.0695,-0.5358,0.2456,170.00,-18.72,-32.09,0.5935,174.0121,stop
24563,0.0773,-0.5262,0.2686,177.89,-13.25,-29.80,0.5958,180.8583,stop
24583,0.0582,-0.5135,0.2931,183.54,-13.77,-25.76,0.5942,185.8512,stop
24603,0.0449,-0.4871,0.2709,189.34,-20.90,-24.46,0.5591,192.0573,stop
24623,0.0590,-0.4570,0.2654,196.09,-26.61,-26.98,0.5318,199.7193,stop
24643,0.0747,-0.4307,0.2753,200.41,-28.32,-30.18,0.5166,204.6415,stop
24663,0.0861,-0.3949,0.2769,202.12,-28.78,-29.94,0.4899,206.3441,stop
24683,0.1047,-0.3447,0.2733,201.24,-28.06,-26.85,0.4522,204.9507,stop
24703,0.1107,-0.3005,0.2537,196.58,-29.98,-25.25,0.4086,200.4507,stop
24723,0.0959,-0.2451,0.2267,188.55,-29.88,-23.27,0.3474,192.3149,stop
24743,0.0980,-0.1997,0.2356,181.15,-29.82,-21.97,0.3240,184.8925,stop
24763,0.1101,-0.1542,0.2345,169.22,-29.45,-20.02,0.3015,172.9272,stop
24783,0.1346,-0.1168,0.2113,152.82,-24.84,-17.98,0.2765,155.8710,stop
24803,0.1493,-0.0824,0.2106,135.48,-12.67,-14.69,0.2710,136.8626,stop
24823,0.1254,-0.0428,0.2075,116.20,-6.05,-10.06,0.2462,116.7898,stop
24843,0.0801,-0.0203,0.2180,96.40,-8.43,-3.04,0.2331,96.8123,stop
24863,0.0909,-0.0149,0.2151,77.04,-17.08,0.37,0.2340,78.9106,stop
24883,0.1268,-0.0116,0.2327,62.47,-19.42,0.38,0.2652,65.4231,stop
24903,0.1378,0.0013,0.2534,51.56,-18.27,2.89,0.2885,54.7763,stop
24923,0.1351,0.0270,0.2678,39.73,-19.37,8.38,0.3012,44.9855,stop
24943,0.1425,0.0277,0.2803,27.56,-21.53,10.32,0.3156,36.4598,stop
24963,0.1630,0.0284,0.2969,18.11,-20.67,10.27,0.3399,29.3386,stop
24983,0.1824,0.0321,0.3092,11.42,-18.56,10.14,0.3604,24.0382,stop
25003,0.1881,0.0327,0.3307,6.58,-12.05,11.27,0.3819,17.7581,stop
25023,0.1927,0.0312,0.3478,1.91,-8.58,10.63,0.3988,13.7903,stop
25043,0.2040,0.0295,0.3595,0.35,-4.67,8.99,0.4144,10.1396,stop
25063,0.2090,0.0376,0.3646,-1.45,0.89,8.40,0.4219,8.5672,stop
25083,0.2026,0.0381,0.3727,-3.80,4.41,7.51,0.4259,9.5048,stop
25103,0.1985,0.0316,0.3789,-5.50,5.25,5.59,0.4289,9.4347,stop
25123,0.1858,0.0283,0.3837,-6.81,3.95,4.23,0.4272,8.9378,stop
