time_ms,ax,ay,az,gx,gy,gz,acc_mag,gyro_mag,label
19523,0.1727,0.0051,0.3931,1.45,-1.39,-0.81,0.4294,2.1653,idle
19543,0.1731,0.0087,0.3911,1.15,-2.85,-0.84,0.4278,3.1886,idle
19563,0.1810,0.0095,0.3876,0.82,-2.27,-0.66,0.4279,2.5071,idle
19583,0.1818,0.0044,0.3923,0.67,-0.82,-0.43,0.4324,1.1462,idle
19603,0.1738,0.0052,0.3915,0.29,0.02,0.15,0.4284,0.3282,idle
19623,0.1705,0.0040,0.3964,-0.12,-0.08,-0.08,0.4315,0.1630,idle
19643,0.1707,0.0033,0.3995,0.00,-1.48,-0.12,0.4345,1.4859,idle
19663,0.1764,0.0000,0.3983,0.37,-3.08,-0.27,0.4356,3.1178,idle
19683,0.1801,0.0054,0.3975,0.58,-2.06,-0.08,0.4364,2.1425,idle
19703,0.1786,0.0035,0.3976,0.92,-0.84,0.14,0.4359,1.2502,idle
19723,0.1788,0.0038,0.4038,1.02,-1.30,-0.32,0.4417,1.6832,idle
19743,0.1786,0.0070,0.3967,1.56,-2.06,-0.18,0.4351,2.5897,idle
19763,0.1753,0.0029,0.3955,1.21,-2.90,-0.08,0.4326,3.1424,idle
19783,0.1827,0.0001,0.3928,0.85,-3.10,-1.04,0.4332,3.3785,idle
19803,0.1848,0.0060,0.3879,0.87,-1.85,-1.40,0.4298,2.4785,idle
19823,0.1783,0.0077,0.3948,0.43,-0.85,-1.08,0.4333,1.4452,idle
19843,0.1747,0.0028,0.3945,0.32,-1.42,-1.04,0.4315,1.7879,idle
19863,0.1718,0.0055,0.3905,0.08,-2.21,-0.69,0.4266,2.3192,idle
19883,0.1775,0.0040,0.3934,0.08,-2.24,-0.82,0.4316,2.3921,idle
19903,0.1774,0.0031,0.3982,-0.21,-1.53,-0.66,0.4359,1.6756,idle
19923,0.1752,-0.0004,0.3954,0.12,-1.48,-0.58,0.4325,1.5952,idle
19943,0.1815,0.0012,0.4009,0.89,-1.77,-0.53,0.4401,2.0509,idle
19963,0.1801,0.0029,0.3961,0.92,-1.95,-0.81,0.4351,2.3049,idle
19983,0.1832,0.0024,0.3962,0.26,-1.68,-0.84,0.4366,1.8955,idle
20003,0.1752,0.0052,0.3981,-0.24,-1.92,-1.36,0.4349,2.3678,idle
20023,0.1766,-0.0002,0.3970,0.18,-2.69,-1.65,0.4345,3.1579,idle
20043,0.1799,0.0031,0.3979,0.63,-2.15,-2.03,0.4367,3.0247,idle
20063,0.1780,0.0057,0.3944,0.98,-1.34,-1.48,0.4327,2.2255,idle
20083,0.1719,0.0048,0.3940,0.82,-2.05,-1.18,0.4299,2.4994,idle
20103,0.1740,0.0046,0.3943,1.37,-2.53,-1.47,0.4310,3.2340,idle
20123,0.1738,0.0018,0.3999,1.91,-2.17,-1.30,0.4361,3.1664,idle
20143,0.1733,0.0001,0.3910,1.91,-1.45,-0.37,0.4277,2.4248,idle
20163,0.1705,0.0066,0.3933,1.42,-1.94,-0.49,0.4287,2.4524,idle
20183,0.1782,0.0033,0.3931,0.90,-2.31,-0.92,0.4316,2.6391,idle
20203,0.1815,0.0045,0.3951,0.34,-1.57,-1.56,0.4349,2.2385,idle
20223,0.1821,0.0054,0.3960,-0.08,-0.67,-0.92,0.4359,1.1385,idle
20243,0.1729,0.0062,0.3936,-0.03,-0.53,-0.84,0.4299,0.9958,idle
20263,0.1757,0.0037,0.3997,0.09,-1.16,-1.30,0.4366,1.7432,idle
20283,0.1802,0.0054,0.3937,0.50,-1.33,-1.18,0.4330,1.8439,idle
20303,0.1783,0.0042,0.3960,0.61,-1.34,-1.01,0.4343,1.7870,idle
20323,0.1741,0.0049,0.3998,0.69,-1.05,-0.87,0.4361,1.5294,idle
20343,0.1774,0.0045,0.3977,0.69,-0.49,-1.19,0.4355,1.4590,idle
20363,0.1748,0.0010,0.3989,0.17,-0.17,-0.90,0.4355,0.9315,idle
20383,0.1735,0.0007,0.3978,0.35,-1.13,-1.27,0.4340,1.7336,idle
20403,0.1761,0.0044,0.3981,0.46,-1.45,-1.53,0.4353,2.1551,idle
20423,0.1764,0.0044,0.3905,-0.20,-1.01,-1.73,0.4285,2.0077,idle
20443,0.1769,0.0029,0.4012,-0.50,-0.02,-1.71,0.4385,1.7827,idle
20463,0.1711,0.0037,0.3942,-0.63,-0.72,-1.56,0.4297,1.8253,idle
20483,0.1708,0.0055,0.3961,-0.03,-1.22,-1.36,0.4314,1.8273,idle
20503,0.1740,0.0056,0.3975,0.08,-1.33,-1.19,0.4339,1.7855,idle
20523,0.1709,0.0074,0.4019,0.53,-1.30,-0.76,0.4367,1.5976,idle
20543,0.1732,0.0029,0.3956,0.35,-1.76,-0.38,0.4319,1.8307,idle
20563,0.1733,0.0046,0.3960,0.20,-2.09,-0.11,0.4323,2.1037,idle
20583,0.1760,0.0010,0.3953,0.72,-2.17,-0.23,0.4327,2.2951,idle
20603,0.1752,0.0039,0.3994,0.60,-3.13,-0.50,0.4362,3.2255,idle
20623,0.1826,0.0000,0.3953,0.00,-3.65,-1.10,0.4354,3.8108,idle
20643,0.1842,0.0022,0.3904,-0.75,-2.34,-2.17,0.4317,3.2735,idle
20663,0.1714,0.0005,0.3978,-1.01,-0.92,-2.20,0.4332,2.5861,idle
20683,0.1700,-0.0015,0.3981,-0.66,-1.76,-1.85,0.4329,2.6318,idle
20703,0.1727,0.0095,0.3969,-0.64,-2.00,-1.59,0.4329,2.6329,idle
20723,0.1678,0.0048,0.3962,-0.93,-1.63,-0.92,0.4304,2.0917,idle
20743,0.1655,0.0043,0.3992,-0.56,-2.58,-0.34,0.4322,2.6625,idle
20763,0.1718,0.0007,0.3999,-0.61,-2.85,-0.03,0.4352,2.9197,idle
20783,0.1722,0.0011,0.3983,-0.09,-1.73,-0.06,0.4340,1.7287,idle
20803,0.1732,-0.0018,0.3953,0.11,-1.22,0.26,0.4316,1.2532,idle
20823,0.1727,-0.0057,0.4069,0.85,-1.34,-0.06,0.4420,1.5936,idle
20843,0.1731,0.0016,0.3973,1.04,-1.44,-0.34,0.4334,1.8028,idle
20863,0.1754,-0.0005,0.3982,0.98,-1.56,0.02,0.4351,1.8385,idle
20883,0.1757,-0.0026,0.4000,1.34,-1.54,-0.35,0.4369,2.0751,idle
20903,0.1718,0.0020,0.3988,1.24,-1.39,-0.18,0.4342,1.8690,idle
20923,0.1763,-0.0012,0.3928,1.65,-1.21,-0.50,0.4306,2.1041,idle
20943,0.1724,0.0027,0.3987,1.97,-1.02,-0.81,0.4344,2.3622,idle
20963,0.1729,0.0033,0.4003,2.56,-2.44,-0.70,0.4360,3.6109,idle
20983,0.1743,0.0076,0.3972,2.69,-2.20,-0.47,0.4338,3.5039,idle
21003,0.1681,0.0029,0.3981,2.82,-1.66,-0.37,0.4321,3.2986,idle
21023,0.1692,0.0050,0.3923,3.05,-1.83,0.15,0.4273,3.5642,idle
21043,0.1708,0.0048,0.3932,3.10,-1.77,0.35,0.4287,3.5868,idle
21063,0.1754,0.0040,0.3945,2.56,-2.40,0.23,0.4318,3.5180,idle
21083,0.1814,0.0054,0.3933,2.31,-2.24,-0.15,0.4332,3.2210,idle
21103,0.1755,0.0045,0.3835,1.08,-1.88,0.03,0.4218,2.1685,idle
21123,0.1730,0.0029,0.3909,0.73,-2.40,-0.14,0.4274,2.5102,idle
21143,0.1765,0.0034,0.3934,0.08,-1.91,-0.63,0.4312,2.0099,idle
21163,0.1796,0.0035,0.3943,-0.29,-0.79,-0.75,0.4333,1.1287,idle
21183,0.1747,0.0067,0.3945,-0.12,-0.64,-0.72,0.4315,0.9700,idle
21203,0.1731,0.0028,0.4020,-0.15,-1.76,-0.87,0.4377,1.9655,idle
21223,0.1775,0.0018,0.4006,-0.41,-2.46,-1.13,0.4382,2.7364,idle
21243,0.1790,0.0043,0.3947,-0.31,-2.67,-1.44,0.4334,3.0481,idle
21263,0.1777,0.0029,0.3925,0.14,-2.35,-1.04,0.4308,2.5738,idle
21283,0.1765,0.0033,0.3995,0.89,-1.76,-1.04,0.4368,2.2236,idle
21303,0.1737,0.0024,0.3993,1.07,-1.74,-1.27,0.4354,2.4036,idle
21323,0.1652,0.0048,0.3951,0.72,-3.27,-1.25,0.4283,3.5716,idle
21343,0.1719,-0.0002,0.3993,0.72,-4.55,-1.40,0.4347,4.8153,idle
21363,0.1781,0.0027,0.3979,0.41,-2.26,-1.50,0.4360,2.7412,idle
21383,0.1748,0.0062,0.4004,0.61,-1.24,-0.95,0.4369,1.6728,idle
21403,0.1697,0.0065,0.3960,0.58,-1.57,-0.55,0.4309,1.7639,idle
21423,0.1705,0.0023,0.3967,0.31,-1.54,-0.81,0.4318,1.7680,idle
21443,0.1749,-0.0013,0.4048,0.35,-2.09,-0.73,0.4410,2.2439,idle
21463,0.1726,0.0045,0.3918,0.70,-1.65,-0.46,0.4282,1.8498,idle
21483,0.1647,0.0017,0.4025,1.04,-2.08,-0.12,0.4349,2.3246,idle
21503,0.1733,0.0031,0.3997,1.40,-2.52,-0.47,0.4356,2.9228,idle
21523,0.1750,0.0032,0.4003,1.33,-1.04,-0.21,0.4369,1.6993,idle
21543,0.1691,0.0029,0.4031,1.44,-0.96,0.05,0.4371,1.7282,idle
21563,0.1748,0.0006,0.3999,2.55,-0.98,0.05,0.4364,2.7308,idle
21583,0.1815,0.0049,0.3939,2.75,0.69,-0.05,0.4338,2.8330,idle
21603,0.1702,0.0010,0.3983,2.38,1.34,0.15,0.4331,2.7387,idle
21623,0.1700,0.0027,0.4006,2.20,-0.69,0.12,0.4352,2.3066,idle
21643,0.1737,0.0040,0.3982,1.95,-1.21,0.09,0.4345,2.2983,idle
21663,0.1709,0.0057,0.3967,1.80,-2.03,0.09,0.4320,2.7161,idle
21683,0.1755,0.0040,0.3954,2.09,-1.36,-0.21,0.4326,2.5034,idle
21703,0.1715,0.0056,0.4016,2.08,-0.96,-0.35,0.4367,2.3151,idle
21723,0.1769,0.0050,0.3947,2.40,-2.52,0.02,0.4325,3.4773,idle
21743,0.1729,0.0084,0.3890,1.69,-1.45,0.05,0.4258,2.2310,idle
21763,0.1677,0.0084,0.3971,1.11,-1.48,0.24,0.4311,1.8695,idle
21783,0.1719,0.0022,0.4019,1.15,-2.12,-0.50,0.4371,2.4634,idle
21803,0.1742,0.0077,0.3942,1.56,-1.74,-0.53,0.4310,2.3958,idle
21823,0.1750,0.0067,0.3937,0.92,-0.87,-0.24,0.4309,1.2869,idle
21843,0.1737,0.0060,0.4027,0.93,-0.78,-0.06,0.4386,1.2154,idle
21863,0.1677,0.0018,0.3992,1.13,-1.82,-0.41,0.4330,2.1788,idle
21883,0.1699,0.0056,0.4014,2.05,-2.99,-0.26,0.4359,3.6341,idle
21903,0.1781,0.0068,0.3990,1.91,-2.70,-0.15,0.4370,3.3117,idle
21923,0.1743,0.0057,0.3961,1.60,-1.21,0.23,0.4328,2.0191,idle
21943,0.1724,0.0037,0.3955,1.22,-1.69,-0.18,0.4314,2.0969,idle
21963,0.1703,0.0038,0.3938,0.82,-2.53,-0.56,0.4291,2.7243,idle
21983,0.1747,0.0063,0.3970,0.79,-1.65,-0.87,0.4338,2.0264,idle
22003,0.1738,0.0092,0.3950,0.81,-1.01,-0.72,0.4317,1.4782,idle
22023,0.1686,0.0083,0.3960,0.32,-1.11,-0.11,0.4305,1.1646,idle
22043,0.1727,0.0089,0.3965,0.35,-0.96,-0.02,0.4326,1.0240,idle
22063,0.1735,0.0081,0.3966,0.73,-1.54,-0.41,0.4330,1.7563,idle
22083,0.1727,0.0072,0.3982,0.92,-2.26,-0.32,0.4341,2.4592,idle
22103,0.1764,0.0098,0.3948,1.05,-1.60,-0.21,0.4325,1.9301,idle
22123,0.1720,0.0054,0.4003,0.89,-1.10,-0.08,0.4357,1.4136,idle
22143,0.1703,0.0048,0.3999,1.21,-2.15,-0.60,0.4347,2.5383,idle
22163,0.1737,0.0051,0.3971,0.82,-3.25,-1.05,0.4335,3.5163,idle
22183,0.1741,0.0081,0.3901,0.18,-2.17,-1.15,0.4273,2.4586,idle
22203,0.1733,0.0095,0.3923,0.14,-1.39,-0.98,0.4290,1.7041,idle
22223,0.1763,0.0078,0.3954,0.09,-1.30,-1.18,0.4330,1.7534,idle
22243,0.1709,0.0098,0.3971,0.12,-1.77,-1.01,0.4324,2.0412,idle
22263,0.1759,0.0062,0.3962,0.17,-1.94,-0.92,0.4336,2.1510,idle
22283,0.1720,0.0042,0.4025,0.38,-1.21,-0.78,0.4377,1.4855,idle
22303,0.1719,0.0021,0.3977,0.58,-1.92,-0.79,0.4333,2.1604,idle
22323,0.1743,0.0032,0.3965,0.82,-2.63,-1.21,0.4331,3.0050,idle
22343,0.1779,0.0044,0.3932,0.98,-1.82,-1.19,0.4316,2.3819,idle
22363,0.1724,0.0065,0.3994,0.70,-0.99,-1.15,0.4351,1.6701,idle
22383,0.1643,0.0062,0.4009,1.08,-2.50,-0.76,0.4333,2.8332,idle
22403,0.1674,0.0052,0.3998,1.27,-3.59,-1.04,0.4334,3.9441,idle
22423,0.1772,0.0056,0.3931,1.07,-2.61,-0.84,0.4312,2.9433,forward
22443,0.1731,0.0099,0.3989,1.10,-0.79,-0.47,0.4350,1.4362,forward
22463,0.1625,0.0084,0.4010,1.28,-1.79,0.14,0.4327,2.2032,forward
22483,0.1749,0.0082,0.3943,1.24,-2.98,0.23,0.4314,3.2318,forward
22503,0.1771,0.0023,0.3903,0.95,-1.65,0.21,0.4286,1.9132,forward
22523,0.1730,0.0046,0.3992,0.82,-1.47,-0.26,0.4351,1.7015,forward
22543,0.1732,0.0048,0.3984,1.04,-2.60,-0.32,0.4345,2.8137,forward
22563,0.1708,0.0063,0.3894,0.41,-3.39,-0.69,0.4253,3.4827,forward
22583,0.1777,0.0056,0.3894,0.31,-2.17,-0.95,0.4281,2.3852,forward
22603,0.1702,0.0079,0.3964,0.05,-1.07,-0.52,0.4314,1.1890,forward
22623,0.1707,0.0088,0.3973,-0.29,-1.86,-0.06,0.4325,1.8860,forward
22643,0.1708,0.0085,0.3942,0.00,-2.72,-0.56,0.4297,2.7756,forward
22663,0.1754,0.0057,0.3967,-0.17,-2.41,-0.35,0.4338,2.4434,forward
22683,0.1749,0.0060,0.3978,-0.37,-2.34,-0.17,0.4346,2.3704,forward
22703,0.1809,0.0017,0.3987,0.08,-2.41,-0.78,0.4378,2.5359,forward
22723,0.1794,0.0063,0.4022,0.31,-0.85,-1.40,0.4405,1.6724,forward
22743,0.1724,0.0039,0.4070,1.59,-1.89,-1.69,0.4420,2.9961,forward
22763,0.1693,0.0028,0.4115,2.63,-2.52,-2.35,0.4450,4.3324,forward
22783,0.1757,-0.0002,0.4238,4.09,-2.21,-3.71,0.4588,5.9502,forward
22803,0.1835,-0.0022,0.4486,7.68,4.02,-5.42,0.4847,10.2211,forward
22823,0.1733,-0.0007,0.4775,14.12,8.12,-6.87,0.5080,17.6806,forward
22843,0.1554,0.0068,0.5006,21.07,9.07,-7.83,0.5242,24.2378,forward
22863,0.1720,-0.0090,0.5244,30.56,11.24,-7.89,0.5520,33.5078,forward
22883,0.1567,0.0001,0.5560,44.40,17.62,-7.56,0.5777,48.3591,forward
22903,0.1398,-0.0063,0.6090,64.40,24.40,-4.87,0.6249,69.0355,forward
22923,0.1167,-0.0005,0.6240,86.44,21.10,0.64,0.6348,88.9828,forward
22943,0.1315,-0.0009,0.6179,107.76,13.01,3.97,0.6318,108.6105,forward
22963,0.1251,0.0172,0.5928,128.44,5.80,3.07,0.6061,128.6103,forward
22983,0.1348,0.0675,0.5510,145.69,-1.92,1.08,0.5713,145.7114,forward
23003,0.1790,0.0844,0.4899,157.04,-1.54,-2.08,0.5283,157.0594,forward
23023,0.2136,0.0798,0.4449,166.06,12.24,-7.47,0.5000,166.6791,forward
23043,0.1862,0.1007,0.4189,175.74,28.27,-7.08,0.4694,178.1414,forward
23063,0.1750,0.1041,0.3954,184.63,35.34,-5.62,0.4448,188.0624,forward
23083,0.1899,0.1172,0.3507,191.30,42.18,-10.31,0.4157,196.1643,forward
23103,0.1393,0.1471,0.3301,194.55,46.20,-9.95,0.3873,200.2072,forward
23123,0.1072,0.1794,0.2997,196.78,34.44,-8.70,0.3654,199.9596,forward
23143,0.1083,0.2130,0.2369,193.28,12.90,-11.66,0.3365,194.0633,forward
23163,0.1257,0.2365,0.1917,186.67,-1.45,-16.79,0.3293,187.4313,forward
23183,0.1482,0.2462,0.1753,181.82,-5.68,-20.66,0.3366,183.0746,forward
23203,0.1694,0.2467,0.1541,180.69,0.38,-23.57,0.3366,182.2186,forward
23223,0.1531,0.2629,0.1053,176.75,6.96,-24.27,0.3220,178.5430,forward
23243,0.1200,0.2937,0.0641,167.07,5.62,-24.50,0.3237,168.9496,forward
23263,0.1000,0.3192,0.0400,160.55,7.08,-23.28,0.3369,162.3836,forward
23283,0.0958,0.3372,0.0126,154.11,9.53,-21.54,0.3507,155.8966,forward
23303,0.0729,0.3672,-0.0098,143.22,1.54,-20.67,0.3745,144.7137,forward
23323,0.0724,0.3953,-0.0453,128.78,-13.15,-20.93,0.4044,131.1291,forward
23343,0.0811,0.4194,-0.0808,110.95,-23.31,-23.30,0.4348,115.7386,forward
23363,0.0770,0.4448,-0.0937,94.79,-30.79,-25.31,0.4611,102.8343,forward
23383,0.0669,0.4609,-0.1050,75.48,-40.73,-25.86,0.4775,89.5846,forward
23403,0.0685,0.4735,-0.1249,57.57,-50.17,-29.98,0.4945,82.0396,forward
23423,0.0723,0.4867,-0.1376,39.15,-52.34,-34.12,0.5109,73.7272,forward
23443,0.0785,0.4852,-0.1475,34.27,-45.01,-32.38,0.5132,65.1845,forward
23463,0.1044,0.5115,-0.1689,17.92,-28.12,-29.07,0.5487,44.2391,forward
23483,0.0724,0.5222,-0.1490,4.31,-6.38,-28.75,0.5479,29.7610,forward
23503,0.0338,0.5280,-0.1315,-7.13,7.76,-24.50,0.5451,26.6725,forward
23523,0.0066,0.5385,-0.1088,-18.44,12.31,-21.27,0.5494,30.7221,forward
23543,-0.0327,0.5367,-0.0895,-29.54,3.97,-18.43,0.5451,35.0437,forward
23563,-0.0353,0.5289,-0.0681,-37.42,-7.57,-13.30,0.5345,40.4279,forward
23583,-0.0106,0.5303,-0.0668,-44.03,-10.18,-9.22,0.5346,46.1240,forward
23603,-0.0051,0.5204,-0.0566,-51.77,-11.56,-6.84,0.5235,53.4845,forward
23623,0.0020,0.5160,-0.0465,-61.33,-14.17,-4.67,0.5181,63.1166,forward
23643,0.0026,0.4976,-0.0176,-68.02,-13.57,-2.08,0.4979,69.3873,forward
23663,0.0028,0.4851,-0.0215,-72.37,-13.97,3.47,0.4856,73.7838,forward
23683,0.0049,0.4839,-0.0443,-81.92,-20.21,4.56,0.4859,84.5040,forward
23703,0.0239,0.4834,-0.0448,-97.27,-28.76,6.32,0.4861,101.6277,forward
23723,0.0345,0.4542,-0.0179,-112.82,-29.73,6.67,0.4559,116.8651,forward
23743,0.0627,0.4109,0.0037,-123.82,-22.03,7.68,0.4157,125.9957,forward
23763,0.0812,0.3787,0.0171,-131.60,-9.08,8.15,0.3876,132.1679,forward
23783,0.0770,0.3710,0.0231,-138.00,4.27,11.04,0.3796,138.5067,forward
23803,0.0741,0.3546,0.0492,-141.62,24.75,14.87,0.3656,144.5314,forward
23823,0.0294,0.3516,0.0812,-148.49,35.97,20.15,0.3620,154.1064,forward
23843,0.0118,0.2970,0.1464,-152.78,31.42,24.32,0.3313,157.8607,forward
23863,0.0593,0.2649,0.1445,-154.63,25.33,24.43,0.3075,158.5793,forward
23883,-0.0366,0.2996,0.1328,-163.31,32.95,25.27,0.3297,168.5083,forward
23903,-0.1598,0.3041,0.1399,-182.08,-20.06,33.31,0.3709,186.1827,forward
23923,-0.0433,0.2245,0.1708,-193.66,-91.97,41.82,0.2854,218.4326,forward
23943,0.1682,0.1362,0.2432,-188.79,-95.51,41.80,0.3256,215.6686,forward
23963,0.3503,0.0812,0.2435,-178.44,-57.39,34.52,0.4343,190.5962,forward
23983,0.3021,0.0765,0.2770,-168.14,7.07,36.29,0.4170,172.1544,forward
24003,0.0532,0.1469,0.3193,-166.29,17.36,40.60,0.3555,172.0515,forward
24023,-0.0476,0.1195,0.4290,-168.23,-31.08,43.11,0.4478,176.4258,forward
24043,0.0957,0.0134,0.4677,-156.44,-68.89,38.12,0.4775,175.1366,forward
24063,0.2694,-0.0073,0.4553,-135.74,-49.94,30.17,0.5291,147.7480,forward
24083,0.2439,0.0370,0.4253,-123.65,-8.34,28.76,0.4917,127.2236,forward
24103,0.1255,0.0651,0.4332,-115.19,17.94,33.40,0.4557,121.2708,forward
24123,0.0819,0.0116,0.5647,-105.30,27.24,36.50,0.5707,114.7256,forward
24143,0.1108,-0.0609,0.6228,-90.44,6.58,36.47,0.6355,97.7420,forward
24163,0.1735,-0.0793,0.6080,-70.58,-1.85,30.27,0.6373,76.8214,forward
24183,0.1483,-0.0383,0.5632,-55.37,2.05,22.27,0.5837,59.7213,forward
24203,0.1133,-0.0330,0.5886,-42.95,4.52,20.70,0.6003,47.8896,forward
24223,0.1914,-0.0654,0.5946,-25.98,9.48,18.76,0.6281,33.4239,forward
24243,0.2078,-0.0621,0.5839,-11.65,19.83,13.21,0.6228,26.5218,forward
24263,0.1346,-0.0393,0.5670,-0.14,15.59,10.76,0.5841,18.9433,forward
24283,0.1035,-0.0259,0.5265,6.81,-2.96,9.33,0.5372,11.9228,forward
24303,0.1162,-0.0129,0.4824,11.37,-19.08,4.79,0.4964,22.7277,forward
24323,0.1515,-0.0007,0.4458,12.11,-22.82,-0.47,0.4708,25.8410,forward
24343,0.1680,-0.0051,0.4286,11.36,-18.00,-4.44,0.4604,21.7430,forward
24363,0.1547,-0.0039,0.4209,12.20,-10.09,-6.29,0.4484,17.0355,forward
24383,0.1307,0.0016,0.4158,12.09,-5.24,-7.51,0.4358,15.1674,forward
24403,0.1241,0.0066,0.3993,11.51,-3.62,-6.87,0.4182,13.8855,forward
24423,0.1161,0.0050,0.3910,9.94,-3.19,-5.91,0.4079,11.9947,forward
24443,0.1256,-0.0022,0.3885,9.24,-2.32,-6.40,0.4084,11.4726,forward
24463,0.1265,0.0031,0.3873,8.47,0.27,-5.83,0.4075,10.2900,forward
24483,0.1151,0.0063,0.4010,7.62,0.61,-3.59,0.4172,8.4430,forward
24503,0.1229,0.0040,0.3944,7.01,-4.35,-2.81,0.4131,8.7138,forward
24523,0.1241,0.0027,0.3864,5.15,-6.50,-3.60,0.4058,9.0417,forward
24543,0.1243,0.0095,0.3890,4.23,-9.05,-2.78,0.4085,10.3716,left
24563,0.1425,0.0067,0.3844,3.92,-8.21,-1.95,0.4100,9.3102,left
24583,0.1475,0.0081,0.3846,3.74,-2.90,-2.29,0.4120,5.2583,left
24603,0.1305,0.0092,0.3977,4.55,-0.05,-1.50,0.4187,4.7895,left
24623,0.1268,0.0193,0.4087,4.81,-1.86,0.06,0.4284,5.1576,left
24643,0.1252,0.0164,0.4001,4.05,-4.99,1.50,0.4196,6.5978,left
24663,0.1283,0.0112,0.4009,2.49,-8.89,1.04,0.4211,9.2856,left
24683,0.1414,0.0099,0.3932,1.15,-10.23,-0.52,0.4179,10.3060,left
24703,0.1460,0.0103,0.4025,0.00,-7.65,-1.22,0.4283,7.7458,left
24723,0.1490,0.0111,0.4009,-0.63,-5.51,-2.52,0.4278,6.0921,left
24743,0.1368,0.0181,0.4103,-0.99,-4.63,-2.41,0.4329,5.3107,left
24763,0.1357,0.0177,0.4045,-0.56,-5.94,-1.82,0.4271,6.2362,left
24783,0.1365,0.0171,0.4058,0.21,-4.53,-1.68,0.4284,4.8401,left
24803,0.1334,0.0172,0.4117,0.90,-4.34,-1.21,0.4332,4.5898,left
24823,0.1296,0.0151,0.4058,1.10,-5.92,-0.43,0.4262,6.0399,left
24843,0.1295,0.0140,0.4139,1.82,-9.13,-0.67,0.4340,9.3330,left
24863,0.1356,0.0144,0.4089,2.55,-9.48,-0.56,0.4311,9.8340,left
24883,0.1405,0.0190,0.4021,2.38,-7.40,-0.05,0.4264,7.7783,left
24903,0.1326,0.0197,0.4016,2.20,-7.10,0.58,0.4234,7.4545,left
24923,0.1405,0.0195,0.4048,2.21,-6.87,0.84,0.4289,7.2668,left
24943,0.1460,0.0149,0.4055,2.12,-5.33,1.48,0.4313,5.9234,left
24963,0.1525,0.0138,0.4043,2.12,-4.15,2.32,0.4323,5.2090,left
24983,0.1505,0.0195,0.4037,1.73,-2.34,2.56,0.4313,3.8744,left
25003,0.1461,0.0164,0.4041,1.28,-2.93,2.44,0.4300,4.0254,left
25023,0.1495,0.0192,0.4005,0.44,-3.73,2.02,0.4279,4.2584,left
25043,0.1495,0.0179,0.4076,-0.79,-4.55,1.74,0.4345,4.9354,left
25063,0.1573,0.0104,0.4021,-0.82,-4.29,0.81,0.4319,4.4429,left
25083,0.1558,0.0162,0.3969,-1.36,-2.81,-0.12,0.4266,3.1229,left
25103,0.1503,0.0166,0.4077,-1.62,-1.83,0.26,0.4348,2.4582,left
25123,0.1606,0.0105,0.4012,-1.22,-1.13,-0.08,0.4323,1.6655,left
25143,0.1631,0.0104,0.4082,-1.53,0.38,-0.93,0.4397,1.8286,left
25163,0.1482,0.0094,0.4060,-0.31,-0.37,-2.14,0.4323,2.1900,left
25183,0.1388,0.0143,0.4048,0.58,-3.24,-2.96,0.4282,4.4255,left
25203,0.1437,0.0144,0.3973,0.87,-5.34,-2.99,0.4228,6.1858,left
25223,0.1481,0.0144,0.3971,1.47,-4.98,-2.81,0.4240,5.9001,left
25243,0.1493,0.0114,0.4041,1.92,-3.51,-2.63,0.4309,4.7882,left
25263,0.1517,0.0109,0.4056,2.60,-3.37,-2.56,0.4332,4.9698,left
25283,0.1487,0.0155,0.4062,2.53,-3.77,-2.90,0.4329,5.3905,left
25303,0.1484,0.0156,0.4044,1.57,-4.89,-2.56,0.4311,5.7376,left
25323,0.1492,0.0123,0.4032,1.36,-5.36,-2.29,0.4301,5.9839,left
25343,0.1587,0.0125,0.4052,0.76,-5.18,-2.02,0.4353,5.6063,left
25363,0.1589,0.0156,0.3983,0.61,-2.64,-2.00,0.4291,3.3688,left
25383,0.1470,0.0192,0.4067,-0.50,-1.97,-1.54,0.4329,2.5515,left
25403,0.1445,0.0181,0.4032,-1.22,-3.77,-1.44,0.4287,4.2156,left
25423,0.1493,0.0128,0.4050,-1.08,-3.31,-1.71,0.4319,3.8826,left
25443,0.1428,0.0172,0.4028,-0.85,-2.95,-1.36,0.4277,3.3555,left
25463,0.1406,0.0195,0.4042,-0.43,-2.85,-0.12,0.4284,2.8894,left
25483,0.1324,0.0178,0.4005,-0.09,-3.21,1.62,0.4222,3.5926,left
25503,0.1240,0.0243,0.3966,0.00,-4.34,3.39,0.4163,5.5034,left
25523,0.1086,0.0255,0.4022,0.09,-5.95,7.07,0.4174,9.2427,left
25543,0.0972,0.0222,0.4137,1.04,-7.51,12.82,0.4255,14.8985,left
25563,0.0886,0.0199,0.4103,3.16,-10.23,18.82,0.4202,21.6559,left
25583,0.0670,0.0315,0.4203,4.41,-13.28,25.80,0.4268,29.3532,left
25603,0.0371,0.0399,0.4131,6.87,-14.64,36.03,0.4167,39.4939,left
25623,0.0543,0.0255,0.4330,11.89,-13.24,47.88,0.4371,51.0778,left
25643,0.0994,0.0081,0.4088,17.22,1.18,58.14,0.4208,60.6458,left
25663,0.0780,0.0116,0.4257,24.34,23.48,69.25,0.4329,77.0676,left
25683,0.0309,0.0193,0.4302,30.05,34.61,84.32,0.4317,95.9719,left
25703,-0.0093,0.0244,0.4211,30.47,32.27,98.82,0.4220,108.3354,left
25723,-0.0549,0.0183,0.4320,24.29,10.64,110.32,0.4359,113.4631,left
25743,0.0354,-0.0262,0.4326,25.68,-10.23,115.86,0.4349,119.1143,left
25763,0.1691,-0.0496,0.3954,26.95,-0.35,114.35,0.4329,117.4837,left
25783,0.1788,-0.0378,0.3763,22.40,22.24,113.77,0.4184,118.0689,left
25803,0.1279,-0.0303,0.4127,23.47,32.08,116.49,0.4332,123.0817,left
25823,0.1250,-0.0389,0.4418,20.37,24.03,116.52,0.4608,120.7019,left
25843,0.1683,-0.0763,0.4406,19.08,13.28,110.96,0.4777,113.3717,left
25863,0.1694,-0.0637,0.4243,18.72,8.41,104.69,0.4613,106.6794,left
25883,0.1827,-0.0511,0.4277,19.39,3.82,99.34,0.4679,101.2899,left
25903,0.1895,-0.0452,0.4039,18.79,3.04,93.62,0.4484,95.5345,left
25923,0.1622,-0.0227,0.3950,16.46,0.08,90.99,0.4276,92.4688,left
25943,0.1501,-0.0303,0.4160,13.40,-8.52,88.40,0.4433,89.8125,left
25963,0.2002,-0.0657,0.4121,14.96,-15.34,79.71,0.4628,82.5406,left
25983,0.2266,-0.0623,0.3994,18.17,-10.46,71.59,0.4634,74.5939,left
26003,0.2023,-0.0294,0.3835,22.27,1.15,73.15,0.4346,76.4701,left
26023,0.1849,-0.0275,0.3751,26.61,8.89,74.02,0.4191,79.1539,left
26043,0.1605,-0.0284,0.4038,22.99,2.40,73.27,0.4355,76.8276,left
26063,0.2816,-0.0552,0.3523,17.91,-17.02,59.59,0.4544,64.5073,left
26083,0.3578,-0.0255,0.3093,11.85,-1.68,39.74,0.4737,41.5028,left
26103,0.2849,-0.0311,0.3928,2.89,7.25,27.57,0.4863,28.6559,left
26123,0.2415,-0.0250,0.4114,2.63,-8.05,12.21,0.4777,14.8595,left
26143,0.2424,0.0161,0.3810,1.74,-17.92,0.47,0.4519,18.0142,left
26163,0.2255,0.0345,0.3728,-3.80,-18.53,-5.71,0.4370,19.7630,left
26183,0.2394,0.0155,0.3767,-4.50,-11.33,-12.44,0.4466,17.4194,left
26203,0.2218,0.0270,0.3842,-2.37,0.87,-17.97,0.4444,18.1455,left
26223,0.1902,0.0262,0.4004,-1.24,6.08,-17.28,0.4440,18.3612,left
26243,0.1749,0.0154,0.4230,0.49,2.15,-17.01,0.4580,17.1503,left
26263,0.1794,0.0159,0.4210,3.42,-0.64,-18.40,0.4579,18.7231,left
26283,0.1957,0.0034,0.4259,5.16,-0.40,-20.26,0.4687,20.9102,left
26303,0.2101,-0.0085,0.4078,6.78,2.11,-25.28,0.4588,26.2601,left
26323,0.2008,-0.0049,0.4069,4.93,1.42,-32.23,0.4537,32.6350,left
26343,0.1904,-0.0092,0.4235,3.53,-4.08,-39.69,0.4644,40.0590,left
26363,0.2070,-0.0118,0.4144,1.63,-13.73,-49.08,0.4634,50.9930,left
26383,0.2328,-0.0137,0.3905,-2.34,-21.22,-60.90,0.4548,64.5345,left
26403,0.2498,-0.0104,0.3839,-5.98,-21.33,-72.37,0.4581,75.6810,left
26423,0.2667,-0.0151,0.3938,-7.73,-15.24,-82.43,0.4759,84.1791,left
26443,0.2650,-0.0186,0.3794,-10.21,-8.40,-90.43,0.4632,91.3891,left
26463,0.2358,-0.0193,0.3789,-11.18,-0.85,-96.12,0.4467,96.7734,left
26483,0.2081,-0.0160,0.3926,-12.64,0.12,-101.80,0.4446,102.5835,left
26503,0.2070,-0.0153,0.3862,-15.18,-4.84,-109.16,0.4385,110.3163,left
26523,0.2002,-0.0243,0.3978,-17.63,-8.23,-115.92,0.4460,117.5456,left
26543,0.1952,-0.0298,0.3999,-17.53,-9.50,-120.63,0.4460,122.2619,left
26563,0.1727,-0.0266,0.4100,-17.63,-10.27,-120.99,0.4457,122.7015,left
26583,0.1566,-0.0272,0.4110,-16.05,-17.27,-121.86,0.4407,124.1214,left
26603,0.1362,-0.0133,0.4064,-16.60,-26.47,-123.39,0.4288,127.2838,left
26623,0.1082,0.0115,0.4025,-17.60,-38.44,-122.76,0.4169,129.8405,left
26643,0.1349,0.0085,0.4031,-18.43,-48.11,-122.32,0.4251,132.7259,left
26663,0.1339,0.0061,0.4286,-15.04,-40.96,-119.51,0.4491,127.2282,left
26683,0.0941,0.0242,0.4351,-7.63,-34.81,-110.09,0.4458,115.7156,left
26703,0.0653,0.0428,0.4242,-3.33,-38.46,-96.87,0.4313,104.2782,left
26723,0.0833,0.0320,0.4165,-0.81,-40.98,-88.05,0.4259,97.1177,left
26743,0.0750,0.0291,0.4421,10.17,-30.75,-79.19,0.4494,85.5571,left
26763,0.0388,0.0724,0.4475,17.10,-26.50,-68.63,0.4550,75.5272,left
26783,0.0298,0.1082,0.3862,15.88,-32.67,-54.81,0.4022,65.7540,left
26803,0.0477,0.0968,0.3771,9.07,-37.54,-44.96,0.3922,59.2723,left
26823,0.0927,0.0800,0.3746,6.82,-36.23,-37.94,0.3941,52.9006,left
26843,0.1377,0.0872,0.3674,6.31,-22.15,-35.11,0.4019,41.9944,left
26863,0.1335,0.1019,0.3774,3.62,-8.35,-28.41,0.4131,29.8343,left
26883,0.1333,0.0968,0.3793,2.06,1.59,-19.47,0.4135,19.6388,left
26903,0.1202,0.0864,0.3850,2.00,10.60,-12.12,0.4125,16.2237,left
26923,0.0844,0.0931,0.4174,1.62,6.00,-6.29,0.4359,8.8422,left
26943,0.0927,0.1016,0.3962,-0.49,-9.80,-1.69,0.4194,9.9589,left
26963,0.1460,0.1053,0.3695,-4.87,-16.84,0.37,0.4110,17.5336,left
26983,0.2051,0.0854,0.3688,-6.17,-10.58,1.47,0.4305,12.3341,left
27003,0.2251,0.0833,0.3616,-4.87,2.43,1.02,0.4340,5.5370,left
27023,0.2036,0.1003,0.3669,-3.95,14.50,1.95,0.4315,15.1597,left
27043,0.1763,0.0961,0.3749,-3.60,16.81,3.11,0.4252,17.4708,left
27063,0.1702,0.0979,0.3787,-3.60,13.95,3.51,0.4265,14.8335,left
27083,0.1675,0.0973,0.3873,-3.94,9.07,4.15,0.4331,10.7239,left
27103,0.1770,0.0861,0.3975,-2.67,1.65,4.78,0.4435,5.7177,left
27123,0.1884,0.0824,0.3961,-1.19,-2.60,2.95,0.4463,4.1032,left
27143,0.1985,0.0890,0.3817,-0.26,-1.98,2.21,0.4393,2.9845,left
27163,0.1879,0.0856,0.3822,-0.64,0.47,1.98,0.4344,2.1388,left
27183,0.1868,0.0828,0.3816,0.11,-0.52,0.76,0.4328,0.9293,left
27203,0.1923,0.0817,0.3829,1.21,1.34,0.35,0.4362,1.8393,left
27223,0.1837,0.0869,0.3834,1.68,3.22,0.99,0.4340,3.7660,right
27243,0.1667,0.0892,0.3899,0.90,0.95,1.83,0.4333,2.2503,right
27263,0.1698,0.0842,0.3872,0.53,-3.86,2.21,0.4311,4.4840,right
27283,0.1858,0.0819,0.3783,0.02,-3.15,2.18,0.4293,3.8286,right
27303,0.1932,0.0812,0.3820,-0.78,2.53,1.73,0.4357,3.1631,right
27323,0.1818,0.0803,0.3939,-0.20,6.27,2.31,0.4412,6.6878,right
27343,0.1646,0.0831,0.3956,0.02,2.73,3.08,0.4365,4.1206,right
27363,0.1658,0.0820,0.3810,0.15,-1.37,2.53,0.4235,2.8869,right
27383,0.1810,0.0847,0.3735,-0.61,-2.00,1.65,0.4236,2.6630,right
27403,0.1910,0.0836,0.3802,-1.24,1.80,2.56,0.4337,3.3695,right
27423,0.1890,0.0775,0.3876,-0.93,5.33,3.05,0.4381,6.2114,right
27443,0.1775,0.0798,0.3873,0.18,6.03,2.85,0.4335,6.6747,right
27463,0.1566,0.0892,0.3895,-0.18,4.21,3.56,0.4292,5.5175,right
27483,0.1506,0.0861,0.3997,-0.70,-1.97,4.44,0.4357,4.9102,right
27503,0.1666,0.0836,0.3967,-0.35,-5.25,4.08,0.4383,6.6575,right
27523,0.1921,0.0854,0.3890,0.20,-2.82,3.45,0.4422,4.4634,right
27543,0.1853,0.0917,0.3745,-0.37,4.09,4.17,0.4278,5.8521,right
27563,0.1681,0.0945,0.3827,-0.82,5.59,4.05,0.4285,6.9478,right
27583,0.1625,0.0969,0.3888,-2.03,1.74,2.61,0.4324,3.7374,right
27603,0.1991,0.0911,0.3846,-3.92,0.43,0.05,0.4426,3.9471,right
27623,0.2183,0.0818,0.3889,-4.17,5.56,-3.44,0.4534,7.7495,right
27643,0.2368,0.0776,0.3799,-4.70,11.16,-9.37,0.4543,15.3146,right
27663,0.2324,0.0818,0.3866,-5.57,16.61,-16.08,0.4584,23.7785,right
27683,0.2195,0.0825,0.4015,-6.66,14.95,-23.04,0.4649,28.2571,right
27703,0.2222,0.0731,0.4230,-7.54,4.73,-31.21,0.4833,32.4515,right
27723,0.2563,0.0667,0.4132,-7.62,-7.47,-42.24,0.4908,43.5701,right
27743,0.2991,0.0747,0.3947,-8.58,-9.19,-54.98,0.5008,56.3966,right
27763,0.3146,0.0629,0.3842,-8.92,-4.06,-68.12,0.5005,68.8231,right
27783,0.3113,0.0636,0.3741,-10.99,0.02,-82.21,0.4908,82.9454,right
27803,0.2845,0.0562,0.3809,-13.07,-1.19,-95.42,0.4787,96.3180,right
27823,0.3118,0.0383,0.3801,-14.00,-3.82,-111.02,0.4931,111.9672,right
27843,0.3232,0.0253,0.3596,-17.48,-1.27,-128.02,0.4842,129.2095,right
27863,0.2572,0.0348,0.3589,-21.68,5.74,-143.11,0.4429,144.8610,right
27883,0.1511,0.0310,0.4104,-24.31,-4.03,-152.03,0.4384,154.0139,right
27903,0.1348,0.0294,0.4349,-21.92,-23.48,-159.60,0.4563,162.8040,right
27923,0.1512,0.0332,0.4133,-21.15,-32.66,-165.11,0.4414,169.6360,right
27943,0.1348,0.0341,0.3966,-20.35,-24.49,-165.33,0.4203,168.3665,right
27963,0.0974,0.0259,0.3983,-19.18,-16.82,-162.78,0.4109,164.7654,right
27983,0.0525,0.0336,0.4126,-18.46,-18.98,-160.29,0.4173,162.4615,right
28003,0.0638,0.0336,0.3961,-19.27,-18.76,-157.08,0.4026,159.3696,right
28023,0.0256,0.0417,0.3873,-21.19,-12.69,-151.13,0.3904,153.1346,right
28043,0.0349,0.0304,0.3977,-20.41,-10.03,-142.14,0.4004,143.9455,right
28063,0.0356,0.0288,0.3937,-17.08,-2.18,-132.84,0.3963,133.9515,right
28083,0.0424,0.0448,0.4258,-18.11,4.32,-123.05,0.4302,124.4535,right
28103,0.0045,0.0543,0.4137,-19.22,-8.44,-113.91,0.4173,115.8269,right
28123,0.0352,0.0601,0.3904,-21.07,-10.40,-101.66,0.3965,104.3436,right
28143,0.0551,0.0519,0.3854,-21.66,-3.36,-90.63,0.3927,93.2399,right
28163,0.0344,0.0529,0.4221,-22.75,-9.30,-83.98,0.4268,87.5063,right
28183,0.0208,0.0575,0.3965,-18.55,4.90,-67.01,0.4012,69.7003,right
28203,-0.0695,0.0795,0.4181,-20.58,10.41,-49.94,0.4312,55.0078,right
28223,-0.1312,0.0840,0.4419,-16.11,0.69,-28.49,0.4686,32.7338,right
28243,-0.0925,0.0721,0.4674,-11.80,-22.90,-10.38,0.4819,27.7759,right
28263,0.0441,0.0487,0.4430,-6.02,-35.76,1.63,0.4478,36.2950,right
28283,0.1788,0.0452,0.3850,0.23,-16.05,6.75,0.4269,17.4085,right
28303,0.1968,0.0469,0.3920,4.81,12.75,7.34,0.4411,15.4780,right
28323,0.1237,0.0658,0.4124,6.61,23.30,8.15,0.4355,25.5529,right
28343,0.0593,0.0707,0.4117,6.70,12.06,10.95,0.4220,17.6130,right
28363,0.0391,0.0684,0.4059,6.34,-7.92,12.37,0.4134,15.9955,right
28383,0.0366,0.0715,0.4075,7.39,-25.24,16.06,0.4153,30.8131,right
28403,0.0620,0.0748,0.3910,8.55,-30.24,22.58,0.4029,38.6998,right
28423,0.0809,0.0714,0.3835,9.80,-24.81,29.24,0.3984,39.5771,right
28443,0.0585,0.0762,0.3831,10.41,-16.37,36.75,0.3949,41.5535,right
28463,0.0448,0.0710,0.4071,12.18,-7.92,48.27,0.4157,50.4150,right
28483,0.0627,0.0571,0.3960,15.19,1.86,59.07,0.4050,61.0192,right
28503,0.0496,0.0579,0.4067,17.66,15.62,69.24,0.4138,73.1414,right
28523,0.0175,0.0629,0.4188,19.21,18.23,78.66,0.4239,82.9941,right
28543,-0.0051,0.0596,0.4395,19.56,11.69,89.54,0.4435,92.3960,right
28563,0.0059,0.0494,0.4364,22.84,4.79,101.48,0.4392,104.1298,right
28583,0.0712,0.0365,0.4114,27.57,12.12,110.98,0.4191,114.9918,right
28603,0.0806,0.0529,0.3837,27.77,30.69,118.50,0.3956,125.5232,right
28623,0.0234,0.0665,0.3867,20.58,30.44,125.48,0.3931,130.7508,right
28643,-0.0337,0.0815,0.3888,10.87,12.53,131.25,0.3987,132.2964,right
28663,-0.0206,0.0704,0.3743,3.62,-12.55,137.63,0.3814,138.2519,right
28683,0.0847,0.0260,0.3868,4.23,-13.68,142.03,0.3969,142.7504,right
28703,0.2224,-0.0076,0.3909,10.69,11.22,138.84,0.4498,139.7018,right
28723,0.2158,0.0370,0.3729,12.27,47.95,135.21,0.4325,143.9825,right
28743,0.0485,0.0913,0.4025,4.92,59.98,142.23,0.4155,154.4391,right
28763,-0.0660,0.0864,0.4402,-0.79,27.92,150.84,0.4534,153.4046,right
28783,-0.0011,0.0311,0.4517,-1.66,-17.56,150.43,0.4527,151.4577,right
28803,0.1455,0.0037,0.3977,-0.03,-31.98,140.98,0.4235,144.5599,right
28823,0.1960,0.0305,0.3701,2.37,-11.74,138.73,0.4199,139.2488,right
28843,0.2800,-0.0079,0.3893,12.93,27.50,139.83,0.4796,143.0953,right
28863,0.2894,0.0021,0.3489,19.37,72.87,131.97,0.4533,151.9913,right
28883,0.1063,0.0730,0.3619,15.21,92.50,131.94,0.3842,161.8520,right
28903,-0.0487,0.0748,0.4351,9.11,59.98,140.60,0.4441,153.1284,right
28923,-0.0200,0.0143,0.4835,8.00,2.20,141.51,0.4841,141.7544,right
28943,0.2024,-0.0433,0.4301,13.53,-22.35,129.80,0.4773,132.4046,right
28963,0.3271,-0.0375,0.3949,18.93,11.71,116.31,0.5142,118.4164,right
28983,0.2750,-0.0187,0.3781,24.44,50.52,111.79,0.4679,125.0832,right
29003,0.1656,0.0286,0.3938,25.39,65.45,109.24,0.4282,129.8500,right
29023,0.0631,0.0411,0.4526,17.19,38.21,104.56,0.4589,112.6483,right
29043,0.1295,-0.0179,0.4691,13.76,-4.96,93.95,0.4870,95.0854,right
29063,0.2620,-0.0259,0.4358,17.01,-14.12,76.11,0.5091,79.2524,right
29083,0.2854,-0.0042,0.4015,15.69,4.37,62.99,0.4926,65.0648,right
29103,0.2202,0.0132,0.4108,15.11,20.38,54.58,0.4663,60.1902,right
29123,0.1729,0.0225,0.4364,16.03,19.40,45.80,0.4699,52.2618,right
29143,0.1366,0.0298,0.4475,15.89,3.07,37.30,0.4688,40.6587,right
29163,0.1365,0.0378,0.4473,13.02,-18.41,29.08,0.4692,36.8033,right
29183,0.1630,0.0408,0.4225,12.70,-32.58,20.52,0.4547,40.5444,right
29203,0.1742,0.0546,0.4010,10.70,-34.43,13.47,0.4406,38.4852,right
29223,0.1780,0.0627,0.3953,7.79,-30.81,7.76,0.4380,32.7106,right
29243,0.1844,0.0659,0.3828,5.45,-24.49,2.34,0.4300,25.1963,right
29263,0.1888,0.0673,0.3766,3.34,-14.44,-3.44,0.4266,15.2175,right
29283,0.1794,0.0670,0.3821,1.73,-2.67,-8.20,0.4274,8.7937,right
29303,0.1437,0.0673,0.3954,0.11,4.47,-10.32,0.4260,11.2489,right
29323,0.1156,0.0682,0.4089,-0.23,2.23,-9.83,0.4304,10.0842,right
29343,0.1057,0.0729,0.4061,-1.22,-3.04,-9.60,0.4259,10.1460,right
29363,0.1119,0.0630,0.4130,-1.79,-6.79,-8.89,0.4325,11.3269,right
29383,0.1284,0.0573,0.4169,-1.21,-5.83,-9.13,0.4399,10.9005,right
29403,0.1123,0.0604,0.4193,-0.73,-4.18,-8.49,0.4383,9.4917,right
29423,0.1080,0.0581,0.4196,1.45,-7.18,-7.59,0.4371,10.5436,right
29443,0.1096,0.0603,0.4094,2.02,-9.65,-6.89,0.4281,12.0238,right
29463,0.1180,0.0599,0.4092,2.64,-9.16,-6.47,0.4301,11.5235,right
29483,0.1285,0.0640,0.4022,2.73,-7.71,-6.96,0.4271,10.7414,right
29503,0.1270,0.0680,0.3984,1.79,-4.49,-6.63,0.4237,8.2001,right
29523,0.1302,0.0671,0.3955,0.96,-2.05,-6.93,0.4218,7.2906,right
29543,0.1221,0.0677,0.3961,-0.06,1.51,-6.84,0.4200,7.0050,right
29563,0.1155,0.0696,0.4001,-0.40,2.03,-6.24,0.4222,6.5781,stop
29583,0.1162,0.0664,0.3979,-0.15,2.21,-5.56,0.4199,5.9839,stop
29603,0.1122,0.0610,0.4001,-0.67,3.18,-5.44,0.4200,6.3306,stop
29623,0.1135,0.0592,0.4076,0.18,3.05,-4.98,0.4272,5.8420,stop
29643,0.1189,0.0635,0.4010,0.50,3.30,-4.03,0.4230,5.2320,stop
29663,0.1222,0.0596,0.4038,0.76,5.68,-3.39,0.4261,6.6577,stop
29683,0.1176,0.0585,0.4039,1.22,5.68,-3.05,0.4247,6.5628,stop
29703,0.1091,0.0630,0.4037,1.13,4.41,-2.82,0.4229,5.3592,stop
29723,0.1118,0.0624,0.4081,0.96,3.15,-2.15,0.4277,3.9307,stop
29743,0.1107,0.0676,0.4019,0.15,1.51,-1.66,0.4223,2.2532,stop
29763,0.1039,0.0704,0.4083,-0.46,-0.53,-0.82,0.4272,1.0840,stop
29783,0.1116,0.0621,0.4012,-0.43,-2.87,0.53,0.4211,2.9507,stop
29803,0.1241,0.0641,0.4025,-0.18,-1.13,1.71,0.4260,2.0576,stop
29823,0.1155,0.0653,0.4010,0.60,3.13,2.31,0.4224,3.9325,stop
29843,0.1061,0.0693,0.4039,1.07,3.47,3.80,0.4233,5.2540,stop
29863,0.1079,0.0669,0.4093,1.19,0.53,4.95,0.4285,5.1159,stop
29883,0.1086,0.0677,0.4021,0.35,-3.45,4.46,0.4220,5.6482,stop
29903,0.1167,0.0702,0.3965,-0.72,-4.95,3.95,0.4192,6.3733,stop
29923,0.1309,0.0663,0.3920,-1.88,-3.13,3.30,0.4185,4.9190,stop
29943,0.1388,0.0635,0.3862,-3.24,0.58,2.31,0.4153,4.0158,stop
29963,0.1110,0.0698,0.3859,-5.33,2.46,1.51,0.4075,6.0594,stop
29983,0.1151,0.0713,0.3817,-7.28,0.41,1.27,0.4050,7.4034,stop
30003,0.1033,0.0691,0.3773,-11.33,-1.36,1.13,0.3973,11.4652,stop
30023,0.1029,0.0724,0.3676,-15.57,-3.16,1.04,0.3885,15.9238,stop
30043,0.0989,0.0780,0.3485,-21.91,-3.44,1.39,0.3706,22.2195,stop
30063,0.0768,0.0840,0.3358,-30.82,-5.51,3.08,0.3546,31.4648,stop
30083,0.0686,0.0842,0.3148,-41.53,-10.52,5.94,0.3330,43.2480,stop
30103,0.1018,0.0682,0.2939,-52.02,-10.64,6.72,0.3185,53.5159,stop
30123,0.1555,0.0492,0.2675,-63.48,2.35,4.34,0.3133,63.6722,stop
30143,0.1565,0.0399,0.2419,-77.31,22.14,3.63,0.2909,80.5020,stop
30163,0.1066,0.0265,0.2478,-92.46,35.60,5.97,0.2710,99.2557,stop
30183,0.0662,-0.0017,0.2679,-109.83,31.54,9.21,0.2760,114.6417,stop
30203,0.0474,-0.0428,0.2587,-126.34,19.30,13.01,0.2664,128.4615,stop
30223,0.0802,-0.0975,0.2593,-140.02,11.97,13.76,0.2884,141.1976,stop
30243,0.1183,-0.1357,0.2227,-152.47,19.07,12.14,0.2863,154.1396,stop
30263,0.1090,-0.1600,0.1976,-167.54,32.90,11.69,0.2767,171.1419,stop
30283,0.0765,-0.1946,0.1984,-180.98,44.14,14.98,0.2882,186.8827,stop
30303,0.0474,-0.2452,0.2345,-191.42,51.07,18.93,0.3426,199.0175,stop
30323,0.0033,-0.2867,0.2506,-199.56,51.02,23.24,0.3808,207.2833,stop
30343,-0.0339,-0.3119,0.2311,-206.58,39.53,30.35,0.3896,212.5063,stop
30363,-0.0383,-0.3545,0.2505,-211.16,26.52,38.55,0.4358,216.2823,stop
30383,0.0577,-0.4485,0.2814,-203.16,34.73,40.55,0.5326,210.0589,stop
30403,0.1327,-0.5044,0.2262,-194.99,59.73,36.75,0.5685,207.2186,stop
30423,0.0499,-0.5043,0.2106,-187.16,84.29,35.59,0.5487,208.3274,stop
30443,-0.0731,-0.5057,0.2527,-185.65,72.32,38.24,0.5701,202.8753,stop
30463,-0.1140,-0.5255,0.2495,-188.18,32.60,34.64,0.5928,194.1015,stop
30483,-0.0511,-0.5515,0.1970,-190.95,4.75,28.96,0.5879,193.1888,stop
30503,0.0179,-0.5883,0.1639,-190.96,2.99,26.64,0.6109,192.8345,stop
30523,0.0516,-0.6284,0.1479,-184.20,24.98,24.58,0.6477,187.5023,stop
30543,-0.0050,-0.6364,0.1688,-177.53,44.50,22.55,0.6584,184.4039,stop
30563,-0.0427,-0.6454,0.1774,-163.40,42.61,16.70,0.6707,169.6929,stop
30583,-0.0521,-0.6221,0.1196,-150.52,38.85,10.95,0.6356,155.8382,stop
30603,-0.0363,-0.6218,0.0870,-134.75,41.37,4.23,0.6289,141.0204,stop
30623,-0.0507,-0.6357,0.0806,-115.57,50.27,3.57,0.6428,126.0846,stop
30643,-0.0747,-0.6221,0.0767,-94.64,51.36,3.65,0.6312,107.7404,stop
30663,-0.1210,-0.5963,0.0793,-78.78,38.46,2.11,0.6136,87.6900,stop
30683,-0.1128,-0.5820,0.0685,-66.50,19.24,-1.69,0.5968,69.2508,stop
30703,-0.0846,-0.5735,0.0522,-56.79,10.64,-9.05,0.5820,58.4871,stop
30723,-0.0823,-0.5621,0.0459,-45.25,6.20,-12.35,0.5700,47.3150,stop
30743,-0.0719,-0.5614,0.0347,-32.72,2.55,-13.31,0.5670,35.4143,stop
30763,-0.0706,-0.5511,0.0396,-21.48,1.92,-13.62,0.5571,25.5066,stop
30783,-0.0786,-0.5455,0.0468,-9.66,-0.55,-12.06,0.5531,15.4650,stop
30803,-0.0723,-0.5420,0.0566,0.40,-4.64,-9.18,0.5497,10.2903,stop
30823,-0.0759,-0.5354,0.0375,11.07,-13.86,-6.63,0.5421,18.9365,stop
30843,-0.0459,-0.5295,0.0225,18.99,-13.56,-2.24,0.5320,23.4424,stop
30863,-0.0327,-0.5380,0.0199,26.21,-5.18,-0.29,0.5393,26.7214,stop
30883,-0.0337,-0.5475,0.0358,32.87,0.34,1.25,0.5497,32.8958,stop
30903,-0.0282,-0.5680,0.0533,41.15,5.88,1.19,0.5712,41.5798,stop
30923,-0.0605,-0.5841,0.0748,55.36,4.32,0.99,0.5920,55.5360,stop
30943,-0.1115,-0.5682,0.1022,72.85,-7.54,3.30,0.5880,73.3185,stop
30963,-0.1229,-0.5692,0.1283,85.54,-30.41,4.20,0.5963,90.8843,stop
30983,-0.0869,-0.5918,0.1249,95.56,-50.81,-0.82,0.6110,108.2286,stop
31003,-0.0209,-0.5936,0.0768,106.96,-53.54,-7.92,0.5989,119.8764,stop
31023,-0.0238,-0.6047,0.0924,119.92,-41.07,-11.11,0.6122,127.2472,stop
31043,-0.0518,-0.6180,0.1503,136.87,-49.98,-13.71,0.6381,146.3554,stop
31063,-0.0605,-0.5901,0.1675,151.79,-63.77,-17.91,0.6164,165.6095,stop
31083,-0.0850,-0.5624,0.1782,162.00,-84.89,-19.10,0.5960,183.8867,stop
31103,-0.0673,-0.5508,0.1840,166.50,-106.34,-24.11,0.5846,199.0276,stop
31123,0.0127,-0.5490,0.1791,165.94,-115.50,-33.66,0.5776,204.9594,stop
31143,0.0726,-0.5538,0.1910,166.98,-107.07,-44.38,0.5903,203.2604,stop
31163,0.0598,-0.5328,0.2100,173.94,-92.56,-48.52,0.5758,202.9214,stop
31183,0.0398,-0.4978,0.2151,178.78,-81.94,-48.21,0.5437,202.4854,stop
31203,0.0544,-0.4874,0.2471,181.39,-78.37,-49.36,0.5492,203.6656,stop
31223,0.0867,-0.5096,0.3087,187.62,-71.07,-51.56,0.6021,207.1462,stop
31243,0.1077,-0.5127,0.3058,193.77,-71.27,-56.82,0.6066,214.1383,stop
31263,0.0674,-0.4741,0.2831,206.72,-80.79,-62.15,0.5563,230.4837,stop
31283,0.0746,-0.3724,0.2515,200.60,-91.65,-67.57,0.4555,230.6601,stop
31303,0.1400,-0.3384,0.2396,188.98,-95.08,-78.06,0.4376,225.4924,stop
31323,0.2128,-0.3284,0.2367,177.68,-82.49,-88.40,0.4573,214.9147,stop
31343,0.1937,-0.2939,0.2415,171.62,-62.18,-91.11,0.4269,204.0134,stop
31363,0.1637,-0.2179,0.2240,160.34,-55.74,-93.15,0.3528,193.6249,stop
31383,0.1707,-0.1538,0.2120,144.67,-52.32,-93.77,0.3126,180.1676,stop
31403,0.2009,-0.1254,0.2191,129.40,-42.43,-90.82,0.3226,163.6909,stop
31423,0.2159,-0.1157,0.2194,116.73,-24.75,-86.56,0.3288,147.4195,stop
31443,0.1976,-0.0940,0.2385,106.27,-7.40,-83.57,0.3237,135.4014,stop
31463,0.1627,-0.0485,0.2540,98.18,1.22,-80.58,0.3055,127.0220,stop
31483,0.1364,0.0001,0.2593,87.30,5.13,-75.76,0.2929,115.6985,stop
31503,0.1299,0.0328,0.2731,71.68,0.49,-67.57,0.3042,98.5100,stop
31523,0.1235,0.0518,0.2910,60.76,-2.03,-59.33,0.3204,84.9479,stop
31543,0.1333,0.0669,0.2744,49.80,-4.23,-52.99,0.3123,72.8441,stop
31563,0.1351,0.0817,0.2721,36.79,-3.19,-45.25,0.3146,58.4098,stop
31583,0.1479,0.0719,0.2959,27.21,-2.56,-34.52,0.3385,44.0263,stop
31603,0.1785,0.0684,0.2975,20.76,-0.89,-27.92,0.3536,34.8085,stop
31623,0.1793,0.0853,0.2957,14.20,2.78,-22.98,0.3562,27.1526,stop
31643,0.1632,0.0964,0.2961,5.62,2.60,-16.96,0.3516,18.0556,stop
31663,0.1504,0.0913,0.3148,-0.52,0.46,-11.47,0.3606,11.4865,stop
31683,0.1699,0.0848,0.3251,-3.97,-4.21,-8.90,0.3765,10.6177,stop
31703,0.1903,0.0930,0.3286,-8.09,-3.57,-7.15,0.3910,11.3705,stop
31723,0.2020,0.0908,0.3329,-10.55,0.81,-3.54,0.3998,11.1577,stop
31743,0.1877,0.0834,0.3544,-10.50,5.22,1.25,0.4096,11.7966,stop
31763,0.1909,0.0792,0.3734,-9.57,3.51,4.11,0.4268,10.9923,stop
31783,0.2163,0.0731,0.3766,-7.63,4.52,5.40,0.4404,10.3876,stop
31803,0.2064,0.0762,0.3901,-5.88,8.11,6.79,0.4479,12.1007,stop
