time_ms,ax,ay,az,gx,gy,gz,acc_mag,gyro_mag,label
12223,0.1416,0.0459,0.3960,1.51,-0.84,0.38,0.4230,1.7707,idle
12243,0.1383,0.0468,0.4000,1.07,-1.42,0.15,0.4258,1.7836,idle
12263,0.1414,0.0466,0.3943,0.55,-1.85,0.49,0.4214,1.9883,idle
12283,0.1466,0.0447,0.4025,0.27,-1.33,0.44,0.4307,1.4268,idle
12303,0.1437,0.0433,0.4078,-0.11,-0.85,0.24,0.4346,0.8956,idle
12323,0.1425,0.0454,0.3982,-0.12,-1.18,0.21,0.4253,1.2011,idle
12343,0.1405,0.0408,0.4038,0.26,-0.78,-0.47,0.4295,0.9474,idle
12363,0.1405,0.0435,0.4043,0.34,-0.89,-0.53,0.4302,1.0874,idle
12383,0.1361,0.0444,0.4058,0.49,-1.97,-0.35,0.4303,2.0593,idle
12403,0.1445,0.0482,0.4045,0.38,-2.15,-0.17,0.4323,2.1927,idle
12423,0.1444,0.0474,0.4044,0.64,-1.47,-0.32,0.4320,1.6316,idle
12443,0.1442,0.0459,0.4070,0.70,-0.89,-0.18,0.4342,1.1449,idle
12463,0.1406,0.0457,0.4078,1.27,-1.45,-0.66,0.4338,2.0348,idle
12483,0.1405,0.0430,0.4076,1.36,-2.63,-0.05,0.4333,2.9570,idle
12503,0.1423,0.0452,0.4022,1.68,-3.01,0.14,0.4290,3.4475,idle
12523,0.1488,0.0450,0.4006,1.91,-2.41,-0.08,0.4297,3.0768,idle
12543,0.1385,0.0459,0.3978,1.53,-1.42,0.35,0.4238,2.1143,idle
12563,0.1354,0.0458,0.4022,0.99,-1.54,0.67,0.4269,1.9529,idle
12583,0.1409,0.0405,0.4032,1.50,-3.31,0.55,0.4290,3.6765,idle
12603,0.1442,0.0472,0.3943,1.45,-3.07,0.31,0.4225,3.4079,idle
12623,0.1445,0.0499,0.3995,1.22,-2.32,0.52,0.4278,2.6733,idle
12643,0.1373,0.0526,0.3944,-0.23,-2.02,1.11,0.4209,2.3143,idle
12663,0.1356,0.0431,0.3993,-0.96,-2.31,1.19,0.4239,2.7673,idle
12683,0.1423,0.0397,0.4049,-0.89,-3.39,0.35,0.4310,3.5206,idle
12703,0.1434,0.0457,0.4050,-0.47,-3.28,-0.32,0.4321,3.3318,idle
12723,0.1490,0.0447,0.4001,-0.73,-2.12,-0.73,0.4293,2.3617,idle
12743,0.1448,0.0375,0.4067,-0.24,-0.60,-0.87,0.4334,1.0824,idle
12763,0.1416,0.0402,0.4082,0.32,-1.01,-1.10,0.4339,1.5253,idle
12783,0.1426,0.0433,0.4064,0.78,-1.57,-1.82,0.4328,2.5258,idle
12803,0.1399,0.0472,0.4055,1.11,-2.03,-2.06,0.4316,3.1005,idle
12823,0.1401,0.0438,0.4030,1.44,-2.99,-1.69,0.4289,3.7263,idle
12843,0.1427,0.0468,0.4022,1.51,-2.46,-1.74,0.4293,3.3698,idle
12863,0.1411,0.0487,0.4003,1.31,-2.21,-1.36,0.4272,2.9105,idle
12883,0.1393,0.0491,0.3987,1.02,-2.14,-0.98,0.4252,2.5631,idle
12903,0.1389,0.0469,0.3989,0.76,-2.12,-0.18,0.4250,2.2627,idle
12923,0.1407,0.0433,0.3988,0.11,-2.27,0.12,0.4251,2.2806,idle
12943,0.1406,0.0402,0.3979,0.46,-2.02,-0.50,0.4240,2.1272,idle
12963,0.1423,0.0452,0.3999,0.31,-2.69,-0.76,0.4269,2.8100,idle
12983,0.1415,0.0480,0.4017,0.08,-2.27,-0.23,0.4286,2.2876,idle
13003,0.1504,0.0459,0.4011,0.06,-1.63,-0.49,0.4308,1.7062,idle
13023,0.1455,0.0493,0.4016,0.55,-0.58,-0.14,0.4300,0.8109,idle
13043,0.1473,0.0455,0.4044,-0.17,-1.05,-0.11,0.4328,1.0721,idle
13063,0.1469,0.0452,0.4064,0.35,-2.23,-0.26,0.4344,2.2714,idle
13083,0.1405,0.0503,0.4061,0.99,-2.78,-0.27,0.4327,2.9633,idle
13103,0.1411,0.0485,0.4053,0.15,-2.90,0.37,0.4319,2.9278,idle
13123,0.1459,0.0421,0.4004,0.41,-3.31,0.23,0.4282,3.3464,idle
13143,0.1393,0.0458,0.4041,1.04,-3.77,-0.50,0.4298,3.9436,idle
13163,0.1443,0.0463,0.4036,1.16,-4.15,-0.37,0.4311,4.3273,idle
13183,0.1477,0.0433,0.4020,1.07,-2.78,0.27,0.4304,2.9897,idle
13203,0.1509,0.0446,0.3993,1.53,-0.85,0.00,0.4292,1.7498,idle
13223,0.1377,0.0439,0.4110,1.80,-1.16,-0.52,0.4357,2.2048,idle
13243,0.1405,0.0475,0.4030,2.18,-3.71,-0.84,0.4294,4.3858,idle
13263,0.1482,0.0424,0.3988,1.86,-3.42,-1.13,0.4276,4.0548,idle
13283,0.1443,0.0458,0.4017,2.27,-1.59,-1.27,0.4293,3.0498,idle
13303,0.1393,0.0476,0.4008,2.20,-1.69,-0.41,0.4269,2.8063,idle
13323,0.1412,0.0455,0.3989,2.11,-1.57,0.03,0.4256,2.6292,idle
13343,0.1379,0.0427,0.4033,1.63,-1.45,0.11,0.4284,2.1872,idle
13363,0.1384,0.0430,0.3993,2.05,-1.62,0.06,0.4248,2.6092,idle
13383,0.1388,0.0496,0.3999,1.82,-2.03,0.58,0.4262,2.7857,idle
13403,0.1399,0.0465,0.3992,1.19,-2.76,1.05,0.4255,3.1881,idle
13423,0.1497,0.0464,0.3945,1.08,-2.93,1.01,0.4245,3.2837,idle
13443,0.1493,0.0474,0.4005,0.78,-1.86,0.44,0.4300,2.0668,idle
13463,0.1473,0.0461,0.3986,0.38,-1.62,0.24,0.4274,1.6806,idle
13483,0.1483,0.0465,0.4015,0.23,-2.87,0.12,0.4305,2.8819,idle
13503,0.1550,0.0441,0.4021,0.61,-2.76,-0.52,0.4332,2.8772,idle
13523,0.1523,0.0468,0.4031,0.72,-1.04,-1.28,0.4334,1.7993,idle
13543,0.1484,0.0441,0.3994,1.22,-0.46,-1.21,0.4284,1.7766,idle
13563,0.1412,0.0482,0.4010,1.33,-1.05,-1.85,0.4279,2.5073,idle
13583,0.1384,0.0486,0.3979,0.82,-1.85,-1.59,0.4241,2.5716,idle
13603,0.1366,0.0483,0.4004,0.50,-2.29,-1.10,0.4258,2.5897,idle
13623,0.1384,0.0507,0.3986,0.11,-1.91,-0.46,0.4249,1.9655,idle
13643,0.1421,0.0476,0.4020,0.14,-1.47,-0.50,0.4290,1.5559,idle
13663,0.1407,0.0525,0.3994,0.14,-1.66,0.02,0.4267,1.6699,idle
13683,0.1406,0.0449,0.4062,0.02,-2.00,0.50,0.4322,2.0625,idle
13703,0.1476,0.0450,0.4055,1.19,-1.48,0.41,0.4339,1.9445,idle
13723,0.1451,0.0492,0.4031,1.47,-0.64,-0.11,0.4312,1.6033,idle
13743,0.1442,0.0469,0.4064,1.53,-1.47,-0.75,0.4337,2.2447,idle
13763,0.1426,0.0469,0.4106,2.08,-2.52,-0.72,0.4372,3.3424,idle
13783,0.1454,0.0466,0.4011,2.72,-1.97,-0.56,0.4292,3.4034,idle
13803,0.1460,0.0454,0.4056,2.61,-0.61,-0.85,0.4335,2.8142,idle
13823,0.1416,0.0503,0.4053,2.27,-1.24,-1.30,0.4322,2.8962,idle
13843,0.1399,0.0504,0.4001,1.74,-2.18,-1.07,0.4269,2.9896,idle
13863,0.1394,0.0510,0.4005,1.18,-2.47,-0.31,0.4271,2.7554,idle
13883,0.1454,0.0482,0.3999,1.21,-3.07,0.11,0.4282,3.2989,idle
13903,0.1470,0.0505,0.3938,0.55,-1.57,0.11,0.4234,1.6692,idle
13923,0.1433,0.0485,0.4019,0.15,-1.51,0.18,0.4294,1.5301,idle
13943,0.1366,0.0466,0.4050,0.73,-3.63,0.41,0.4300,3.7296,idle
13963,0.1489,0.0465,0.4006,0.69,-3.68,0.09,0.4299,3.7441,idle
13983,0.1505,0.0487,0.4026,1.24,-2.31,-0.46,0.4326,2.6559,idle
14003,0.1484,0.0474,0.3977,1.51,-1.01,-0.75,0.4271,1.9645,idle
14023,0.1417,0.0490,0.4015,1.54,-0.37,-0.78,0.4286,1.7659,idle
14043,0.1373,0.0496,0.4034,1.68,-2.26,-0.67,0.4290,2.8943,idle
14063,0.1444,0.0479,0.4003,1.59,-3.18,-0.17,0.4282,3.5544,idle
14083,0.1460,0.0532,0.3964,1.24,-2.02,-0.29,0.4257,2.3822,idle
14103,0.1373,0.0503,0.4005,0.46,-1.21,0.21,0.4264,1.3077,idle
14123,0.1361,0.0493,0.3992,0.35,-2.72,1.10,0.4246,2.9524,idle
14143,0.1454,0.0469,0.4005,0.00,-3.97,1.56,0.4287,4.2640,idle
14163,0.1482,0.0518,0.3975,-0.37,-2.93,1.44,0.4273,3.2843,idle
14183,0.1478,0.0496,0.3903,-0.84,-1.76,1.28,0.4203,2.3307,idle
14203,0.1415,0.0470,0.3998,-0.55,-1.42,1.11,0.4267,1.8868,idle
14223,0.1384,0.0487,0.3965,-0.11,-2.78,0.56,0.4228,2.8375,idle
14243,0.1410,0.0460,0.3998,-0.64,-3.31,0.66,0.4264,3.4377,idle
14263,0.1444,0.0410,0.4003,-0.20,-2.63,0.76,0.4275,2.7419,idle
14283,0.1483,0.0449,0.3967,0.58,-0.63,-0.31,0.4259,0.9064,idle
14303,0.1469,0.0485,0.4022,1.10,0.82,-0.35,0.4309,1.4182,idle
14323,0.1455,0.0453,0.4039,1.42,0.90,-0.52,0.4317,1.7598,idle
14343,0.1444,0.0490,0.4025,1.79,-0.03,-0.27,0.4304,1.8075,idle
14363,0.1504,0.0482,0.3993,1.31,-0.17,0.12,0.4294,1.3293,idle
14383,0.1522,0.0454,0.4055,1.30,0.32,-0.49,0.4355,1.4232,idle
14403,0.1436,0.0470,0.4060,1.56,-0.15,-1.47,0.4332,2.1439,idle
14423,0.1453,0.0449,0.4067,1.48,-1.33,-1.37,0.4342,2.4177,idle
14443,0.1436,0.0457,0.4060,1.57,-2.08,-1.01,0.4331,2.7927,idle
14463,0.1475,0.0487,0.4083,1.66,-1.21,-1.05,0.4369,2.3095,idle
14483,0.1453,0.0491,0.4022,1.21,-0.79,-0.93,0.4305,1.7182,idle
14503,0.1410,0.0514,0.4060,0.79,-1.15,-0.72,0.4329,1.5672,idle
14523,0.1393,0.0465,0.4034,0.18,-2.78,-0.55,0.4293,2.8384,idle
14543,0.1385,0.0505,0.4000,-0.32,-3.60,2.82,0.4263,4.5894,idle
14563,0.1489,0.0446,0.3979,-0.43,-4.21,-0.50,0.4272,4.2652,idle
14583,0.1466,0.0460,0.3988,0.70,-2.78,-0.72,0.4274,2.9545,idle
14603,0.1396,0.0485,0.3979,0.43,-2.08,-1.51,0.4245,2.6035,idle
14623,0.1361,0.0468,0.4042,0.53,-2.82,-1.36,0.4290,3.1795,idle
14643,0.1403,0.0488,0.3971,0.78,-3.39,-0.76,0.4240,3.5604,idle
14663,0.1390,0.0516,0.3967,0.55,-1.62,-0.43,0.4235,1.7618,idle
14683,0.1371,0.0472,0.4005,0.93,-0.60,-0.15,0.4260,1.1159,idle
14703,0.1409,0.0472,0.3970,1.27,-0.76,-0.21,0.4239,1.4947,idle
14723,0.1385,0.0511,0.4003,1.39,-1.80,-0.40,0.4266,2.3094,idle
14743,0.1395,0.0514,0.3981,0.76,-1.62,-0.29,0.4249,1.8127,idle
14763,0.1415,0.0499,0.4037,0.41,-1.25,0.53,0.4307,1.4222,idle
14783,0.1449,0.0466,0.3986,0.47,-0.82,0.93,0.4266,1.3308,idle
14803,0.1451,0.0507,0.4030,0.32,-0.58,0.47,0.4313,0.8145,idle
14823,0.1414,0.0453,0.3990,0.21,-1.08,-0.17,0.4258,1.1175,idle
14843,0.1388,0.0471,0.4071,0.29,-2.27,0.03,0.4327,2.2934,idle
14863,0.1473,0.0491,0.4005,0.15,-3.33,0.47,0.4296,3.3652,idle
14883,0.1516,0.0457,0.3989,-0.41,-2.09,0.61,0.4292,2.2176,idle
14903,0.1503,0.0479,0.3992,0.02,-0.21,0.03,0.4292,0.2164,idle
14923,0.1439,0.0410,0.4010,0.06,0.52,-1.30,0.4280,1.3990,idle
14943,0.1393,0.0426,0.4033,0.02,-0.87,-2.44,0.4288,2.5932,idle
14963,0.1403,0.0455,0.4033,0.35,-1.30,-2.52,0.4294,2.8554,idle
14983,0.1421,0.0428,0.4019,0.14,-1.08,-1.44,0.4284,1.8037,idle
15003,0.1438,0.0438,0.4034,-0.06,-0.09,-0.27,0.4305,0.2960,idle
15023,0.1398,0.0485,0.4033,-0.41,0.14,-0.05,0.4296,0.4369,idle
15043,0.1395,0.0457,0.4067,-0.35,-1.25,-0.31,0.4324,1.3356,idle
15063,0.1406,0.0436,0.4109,-0.55,-2.84,-0.70,0.4365,2.9764,idle
15083,0.1404,0.0468,0.4038,0.08,-3.62,-0.61,0.4301,3.6703,idle
15103,0.1471,0.0457,0.4050,0.38,-3.21,-0.50,0.4333,3.2678,idle
15123,0.1479,0.0452,0.4032,0.46,-1.33,-0.64,0.4319,1.5444,idle
15143,0.1400,0.0435,0.4061,0.96,-0.92,-1.08,0.4318,1.7144,idle
15163,0.1383,0.0432,0.4048,0.95,-2.18,-1.24,0.4299,2.6817,idle
15183,0.1411,0.0428,0.4031,1.04,-2.34,-1.39,0.4292,2.9093,idle
15203,0.1396,0.0480,0.4016,0.95,-2.37,-1.22,0.4279,2.8262,idle
15223,0.1411,0.0483,0.3948,0.92,-1.89,-0.89,0.4220,2.2819,idle
15243,0.1399,0.0471,0.3987,0.82,-1.31,-0.84,0.4251,1.7631,idle
15263,0.1399,0.0474,0.3984,0.26,-1.10,-1.02,0.4249,1.5238,idle
15283,0.1409,0.0480,0.4008,0.32,-1.94,-1.33,0.4275,2.3720,idle
15303,0.1447,0.0494,0.4042,0.76,-2.40,-1.28,0.4321,2.8236,idle
15323,0.1479,0.0490,0.3954,0.56,-0.81,-1.33,0.4250,1.6547,idle
15343,0.1456,0.0461,0.4037,0.53,-0.06,-1.63,0.4316,1.7198,idle
15363,0.1398,0.0471,0.4055,0.84,-0.20,-1.51,0.4315,1.7404,idle
15383,0.1382,0.0537,0.4009,0.56,-0.49,-0.87,0.4274,1.1468,idle
15403,0.1371,0.0508,0.4037,0.17,-1.59,0.20,0.4293,1.6089,idle
15423,0.1368,0.0499,0.4034,0.29,-1.11,-0.34,0.4289,1.1996,idle
15443,0.1313,0.0443,0.4052,0.52,-0.70,-0.49,0.4282,1.0007,idle
15463,0.1323,0.0498,0.4027,0.32,-2.47,0.46,0.4268,2.5357,idle
15483,0.1403,0.0479,0.3999,0.29,-2.70,0.96,0.4265,2.8830,idle
15503,0.1476,0.0475,0.3978,0.24,-0.93,1.62,0.4270,1.8831,idle
15523,0.1378,0.0479,0.4038,0.02,-0.49,1.11,0.4294,1.2170,idle
15543,0.1355,0.0438,0.4073,-0.15,-2.31,0.70,0.4315,2.4148,idle
15563,0.1429,0.0481,0.4052,-0.06,-3.01,0.60,0.4323,3.0666,idle
15583,0.1462,0.0425,0.4056,-0.15,-1.73,0.34,0.4333,1.7642,idle
15603,0.1436,0.0433,0.4100,0.56,-0.55,-0.60,0.4366,0.9878,idle
15623,0.1365,0.0431,0.4033,0.78,-0.27,-0.96,0.4280,1.2676,idle
15643,0.1387,0.0452,0.4048,0.52,-0.12,-1.11,0.4303,1.2355,idle
15663,0.1426,0.0485,0.4050,0.47,0.26,-1.11,0.4321,1.2383,idle
15683,0.1360,0.0444,0.4071,0.98,0.44,-1.01,0.4315,1.4718,idle
15703,0.1348,0.0432,0.4097,1.16,-0.41,-0.41,0.4334,1.2985,idle
15723,0.1382,0.0419,0.4093,1.85,-2.76,0.32,0.4340,3.3394,idle
15743,0.1443,0.0472,0.4031,2.63,-2.60,-0.44,0.4307,3.7186,idle
15763,0.1414,0.0515,0.4039,2.84,-2.69,-0.43,0.4310,3.9328,idle
15783,0.1373,0.0511,0.3983,1.74,-3.57,0.27,0.4244,3.9834,idle
15803,0.1404,0.0486,0.3975,1.42,-4.32,0.92,0.4243,4.6393,forward
15823,0.1399,0.0491,0.3916,0.75,-3.07,1.40,0.4187,3.4568,forward
15843,0.1255,0.0454,0.4021,0.14,-3.98,2.18,0.4237,4.5457,forward
15863,0.1399,0.0419,0.3990,-0.37,-5.28,2.18,0.4249,5.7276,forward
15883,0.1420,0.0417,0.3911,-0.47,-3.50,1.92,0.4182,4.0184,forward
15903,0.1365,0.0432,0.4005,-1.31,-2.46,2.44,0.4253,3.7058,forward
15923,0.1351,0.0426,0.4025,-1.59,-4.29,2.87,0.4267,5.4004,forward
15943,0.1436,0.0402,0.3999,-1.45,-4.85,2.73,0.4268,5.7570,forward
15963,0.1519,0.0394,0.4019,-1.54,-3.62,2.46,0.4314,4.6381,forward
15983,0.1537,0.0422,0.4043,-1.04,-2.11,1.18,0.4346,2.6265,forward
16003,0.1418,0.0398,0.4064,-0.96,-1.76,0.43,0.4323,2.0471,forward
16023,0.1392,0.0385,0.4086,-0.95,-3.83,0.43,0.4333,3.9703,forward
16043,0.1481,0.0378,0.4058,-1.19,-4.52,0.44,0.4336,4.6943,forward
16063,0.1473,0.0416,0.4015,-0.93,-2.85,0.24,0.4297,3.0129,forward
16083,0.1416,0.0360,0.4083,-0.18,-2.52,-0.27,0.4337,2.5406,forward
16103,0.1412,0.0374,0.4066,0.90,-3.07,-1.53,0.4321,3.5439,forward
16123,0.1449,0.0389,0.3994,1.88,-2.20,-2.11,0.4267,3.5775,forward
16143,0.1434,0.0398,0.3955,1.51,-1.30,-1.97,0.4226,2.8013,forward
16163,0.1403,0.0404,0.4005,1.59,-1.11,-1.45,0.4263,2.4221,forward
16183,0.1465,0.0453,0.3948,1.02,-1.18,-1.11,0.4235,1.9158,forward
16203,0.1504,0.0464,0.3983,0.67,0.08,-1.33,0.4283,1.4904,forward
16223,0.1399,0.0399,0.4004,0.05,-0.15,-1.04,0.4260,1.0503,forward
16243,0.1381,0.0405,0.3997,0.24,-2.26,-0.98,0.4248,2.4738,forward
16263,0.1478,0.0417,0.4017,0.06,-2.44,-0.75,0.4301,2.5555,forward
16283,0.1526,0.0422,0.4071,-0.20,-1.37,-0.29,0.4368,1.4183,forward
16303,0.1500,0.0424,0.3993,0.35,0.17,-0.85,0.4286,0.9394,forward
16323,0.1428,0.0428,0.4081,0.52,-0.17,-1.25,0.4345,1.3656,forward
16343,0.1421,0.0427,0.4030,1.05,-1.88,-1.71,0.4294,2.7495,forward
16363,0.1465,0.0438,0.4014,1.54,-1.57,-2.17,0.4295,3.0904,forward
16383,0.1440,0.0397,0.4026,1.45,-0.79,-2.41,0.4294,2.9245,forward
16403,0.1357,0.0427,0.4019,1.39,-0.72,-1.47,0.4263,2.1432,forward
16423,0.1392,0.0460,0.3976,0.67,-0.32,-1.11,0.4237,1.3402,forward
16443,0.1398,0.0463,0.4039,-0.18,0.27,-0.29,0.4299,0.4396,forward
16463,0.1327,0.0404,0.4069,-0.31,-1.68,0.15,0.4299,1.7137,forward
16483,0.1443,0.0458,0.4025,-0.40,-1.50,-0.58,0.4300,1.6531,forward
16503,0.1406,0.0428,0.4025,-0.08,-0.70,-1.07,0.4285,1.2811,forward
16523,0.1409,0.0408,0.4059,-0.32,-0.15,-0.78,0.4316,0.8558,forward
16543,0.1309,0.0376,0.4100,0.44,-0.84,-0.21,0.4320,0.9730,forward
16563,0.1377,0.0408,0.4083,0.89,-1.54,-0.09,0.4328,1.7805,forward
16583,0.1484,0.0425,0.4050,1.45,-0.12,-0.64,0.4335,1.5905,forward
16603,0.1399,0.0414,0.4036,1.86,-0.17,-1.36,0.4291,2.3117,forward
16623,0.1387,0.0398,0.4066,2.52,-2.44,-1.42,0.4315,3.7853,forward
16643,0.1497,0.0441,0.4072,2.69,-2.98,-1.51,0.4361,4.2858,forward
16663,0.1497,0.0409,0.4044,2.34,-0.69,-1.85,0.4332,3.0563,forward
16683,0.1416,0.0464,0.4106,2.34,-0.81,-1.82,0.4368,3.0679,forward
16703,0.1394,0.0529,0.4116,2.03,-3.33,-2.09,0.4378,4.4244,forward
16723,0.1482,0.0532,0.4353,2.27,-5.11,-0.53,0.4629,5.6230,forward
16743,0.1671,0.0477,0.4565,4.23,-5.24,0.99,0.4885,6.8038,forward
16763,0.1730,0.0427,0.4943,8.26,-5.11,1.04,0.5254,9.7702,forward
16783,0.1954,0.0289,0.5326,14.21,-5.63,0.12,0.5681,15.2900,forward
16803,0.2384,0.0153,0.5740,24.00,1.95,2.15,0.6217,24.1755,forward
16823,0.2562,0.0138,0.5951,37.42,16.64,-3.04,0.6481,41.0659,forward
16843,0.2109,0.0219,0.6055,50.98,26.92,-5.22,0.6415,57.8826,forward
16863,0.1558,0.0245,0.6173,63.74,22.18,-5.79,0.6371,67.7379,forward
16883,0.1171,0.0161,0.6245,79.37,3.16,-6.12,0.6356,79.6725,forward
16903,0.1160,0.0264,0.5814,94.53,-19.76,-10.43,0.5935,97.1379,forward
16923,0.1167,0.0247,0.5638,108.98,-38.29,-17.42,0.5763,116.8143,forward
16943,0.1086,0.0227,0.5436,125.68,-59.34,-25.22,0.5548,141.2554,forward
16963,0.1572,0.0464,0.4797,140.70,-69.83,-34.96,0.5070,160.9223,forward
16983,0.1848,0.0740,0.4197,150.81,-65.04,-43.92,0.4645,170.0078,forward
17003,0.1508,0.0818,0.3837,160.70,-61.24,-50.11,0.4203,179.1252,forward
17023,0.1202,0.1106,0.3300,168.38,-65.18,-55.63,0.3682,188.9321,forward
17043,0.1200,0.1332,0.2659,171.79,-70.29,-58.64,0.3207,194.6535,forward
17063,0.1454,0.1622,0.2129,172.47,-63.68,-60.60,0.3046,193.5818,forward
17083,0.1399,0.2025,0.1588,167.45,-52.17,-61.65,0.2929,185.9078,forward
17103,0.1188,0.2186,0.1561,164.31,-47.25,-62.12,0.2937,181.9015,forward
17123,0.0996,0.2247,0.1237,161.51,-49.07,-63.73,0.2752,180.4289,forward
17143,0.1301,0.2657,0.0509,152.67,-41.76,-64.37,0.3002,170.8661,forward
17163,0.1443,0.3137,0.0255,141.98,-23.22,-63.53,0.3463,157.2722,forward
17183,0.0956,0.3430,0.0315,132.61,-13.89,-58.49,0.3575,145.6006,forward
17203,0.0608,0.3505,0.0347,123.37,-16.55,-50.95,0.3574,134.5013,forward
17223,0.0701,0.3573,0.0159,115.74,-24.09,-47.65,0.3645,127.4624,forward
17243,0.0946,0.3807,-0.0060,108.50,-25.33,-47.45,0.3924,121.1038,forward
17263,0.0909,0.3967,-0.0114,100.58,-22.09,-46.82,0.4072,113.1235,forward
17283,0.0873,0.4091,-0.0521,91.65,-15.95,-45.50,0.4215,103.5565,forward
17303,0.0868,0.4303,-0.0613,80.46,-6.56,-44.89,0.4432,92.3650,forward
17323,0.1083,0.4530,-0.0853,68.93,8.72,-41.07,0.4735,80.7103,forward
17343,0.1064,0.4709,-0.0793,58.24,28.66,-35.82,0.4893,74.1379,forward
17363,0.0682,0.4821,-0.0807,47.25,41.57,-28.55,0.4935,69.1093,forward
17383,0.0480,0.4967,-0.0868,36.26,43.60,-22.66,0.5065,61.0680,forward
17403,0.0480,0.5237,-0.0951,23.89,45.48,-17.95,0.5344,54.4219,forward
17423,0.0321,0.5204,-0.0745,11.66,42.81,-14.26,0.5267,46.6048,forward
17443,0.0083,0.5282,-0.0544,4.35,33.19,-7.34,0.5311,34.2709,forward
17463,0.0056,0.5334,-0.0477,-3.68,16.23,-3.36,0.5356,16.9765,forward
17483,0.0204,0.5300,-0.0421,-10.35,0.32,-0.66,0.5321,10.3769,forward
17503,0.0431,0.5284,-0.0461,-16.56,-8.40,2.99,0.5322,18.8111,forward
17523,0.0596,0.5278,-0.0457,-23.83,-8.20,6.96,0.5331,26.1467,forward
17543,0.0652,0.5233,-0.0432,-31.15,-6.93,11.56,0.5291,33.9356,forward
17563,0.0811,0.5167,-0.0378,-38.60,-0.90,16.08,0.5244,41.8195,forward
17583,0.0840,0.5033,-0.0408,-46.44,8.70,19.47,0.5119,51.1035,forward
17603,0.0649,0.4911,-0.0013,-53.74,12.55,21.91,0.4954,59.3760,forward
17623,0.0546,0.4735,0.0127,-59.02,6.66,25.04,0.4768,64.4587,forward
17643,0.0747,0.4696,-0.0233,-66.03,5.48,27.28,0.4761,71.6548,forward
17663,0.0953,0.4650,-0.0200,-75.28,16.66,28.18,0.4751,82.0925,forward
17683,0.0708,0.4437,0.0372,-82.17,20.63,30.31,0.4509,89.9745,forward
17703,0.0474,0.4342,0.0461,-87.45,12.84,33.01,0.4392,94.3500,forward
17723,0.0690,0.4218,0.0409,-95.79,6.76,34.00,0.4293,101.8663,forward
17743,0.1178,0.4143,0.0206,-104.98,19.40,37.16,0.4312,113.0381,forward
17763,0.1156,0.3903,0.0671,-115.65,35.37,41.42,0.4125,127.8342,forward
17783,0.1097,0.3478,0.1211,-121.34,32.98,40.93,0.3843,132.2388,forward
17803,0.0991,0.3710,0.0687,-136.35,34.26,47.21,0.3901,148.3030,forward
17823,0.1194,0.3369,0.0862,-148.92,47.19,55.34,0.3677,165.7283,forward
17843,0.0828,0.2949,0.1504,-158.32,50.81,54.38,0.3412,174.9410,forward
17863,0.0471,0.2738,0.1624,-162.60,33.69,56.78,0.3218,175.4891,forward
17883,0.0814,0.2455,0.1705,-170.18,26.02,58.32,0.3098,181.7702,forward
17903,0.1089,0.2004,0.2267,-176.72,25.18,58.43,0.3216,187.8209,forward
17923,0.0923,0.1218,0.3755,-171.73,6.00,55.82,0.4054,180.6684,forward
17943,0.0975,0.0929,0.3677,-158.87,-32.35,48.96,0.3916,169.3624,forward
17963,0.1791,0.1160,0.2297,-154.02,-38.56,41.48,0.3135,164.0994,forward
17983,0.2854,0.1183,0.1853,-162.79,15.74,38.69,0.3603,168.0664,forward
18003,0.2527,0.0410,0.3362,-168.02,74.66,39.25,0.4226,187.9985,forward
18023,0.1473,-0.0017,0.4341,-163.82,75.33,36.96,0.4584,184.0556,forward
18043,0.0746,-0.0076,0.4181,-160.60,45.37,34.95,0.4248,170.5021,forward
18063,0.0861,-0.0382,0.4366,-154.58,31.71,33.33,0.4467,161.2802,forward
18083,0.1139,-0.0619,0.4565,-145.53,25.16,28.72,0.4746,150.4519,forward
18103,0.1244,-0.0756,0.4675,-134.90,19.92,22.20,0.4897,138.1591,forward
18123,0.1222,-0.0872,0.4277,-126.61,24.14,15.68,0.4533,129.8412,forward
18143,0.1317,-0.1122,0.4895,-118.82,38.70,13.10,0.5192,125.6531,forward
18163,0.1078,-0.1348,0.5356,-106.81,30.85,12.17,0.5628,111.8404,forward
18183,0.0862,-0.1307,0.4845,-95.59,22.08,10.81,0.5092,98.6977,forward
18203,0.0963,-0.1340,0.4623,-92.20,26.85,9.28,0.4909,96.4775,forward
18223,0.0936,-0.1847,0.5605,-78.58,22.56,6.26,0.5976,81.9951,forward
18243,0.0903,-0.1970,0.5601,-61.37,6.46,2.23,0.6005,61.7531,forward
18263,0.1035,-0.1534,0.4655,-51.27,1.73,-2.85,0.5009,51.3756,forward
18283,0.1113,-0.1318,0.4236,-48.82,16.72,-3.66,0.4574,51.7371,forward
18303,0.0594,-0.1666,0.4835,-44.37,21.85,-0.05,0.5149,49.4539,forward
18323,0.0424,-0.1846,0.5168,-35.51,9.02,2.31,0.5504,36.7123,forward
18343,0.0509,-0.1842,0.5106,-25.68,-3.51,0.02,0.5452,25.9184,forward
18363,0.0781,-0.1683,0.4587,-18.99,-9.22,-4.32,0.4949,21.5502,forward
18383,0.0869,-0.1752,0.4667,-11.48,-7.85,-5.01,0.5060,14.7807,forward
18403,0.0999,-0.1826,0.4717,-2.52,-7.83,-7.65,0.5156,11.2335,forward
18423,0.1052,-0.1760,0.4766,6.84,-5.60,-10.72,0.5188,13.8939,forward
18443,0.0978,-0.1620,0.4711,14.15,-4.55,-12.35,0.5076,19.3274,forward
18463,0.0988,-0.1545,0.4528,18.46,-1.95,-11.82,0.4885,22.0035,forward
18483,0.0991,-0.1495,0.4337,20.46,3.48,-11.69,0.4694,23.8204,forward
18503,0.0813,-0.1428,0.4257,21.76,6.70,-10.66,0.4563,25.1355,forward
18523,0.0695,-0.1312,0.4227,22.55,5.02,-8.05,0.4480,24.4632,forward
18543,0.0648,-0.1273,0.4193,22.44,-0.03,-5.77,0.4430,23.1729,forward
18563,0.0717,-0.1243,0.4196,22.58,-4.84,-5.40,0.4434,23.7170,forward
18583,0.0765,-0.1163,0.4137,22.37,-9.02,-6.44,0.4365,24.9635,forward
18603,0.0828,-0.1069,0.4103,21.22,-12.67,-5.88,0.4320,25.4061,forward
18623,0.0941,-0.1029,0.3932,18.23,-13.13,-4.99,0.4172,23.0133,left
18643,0.1050,-0.1091,0.3942,17.27,-8.78,-4.20,0.4223,19.8204,left
18663,0.0908,-0.1073,0.4031,16.76,-6.06,-3.34,0.4269,18.1363,left
18683,0.0920,-0.1007,0.4032,15.65,-5.34,-2.43,0.4257,16.7132,left
18703,0.0966,-0.1040,0.4023,14.18,-4.46,-2.40,0.4266,15.0593,left
18723,0.0895,-0.1045,0.4025,14.08,-2.63,-2.66,0.4253,14.5635,left
18743,0.0858,-0.1010,0.3973,13.82,-4.06,-2.75,0.4188,14.6611,left
18763,0.0887,-0.1006,0.3966,12.89,-5.39,-2.11,0.4187,14.1251,left
18783,0.0984,-0.0992,0.3954,12.11,-6.69,-2.53,0.4194,14.0611,left
18803,0.1000,-0.0966,0.3997,12.23,-5.82,-2.82,0.4231,13.8333,left
18823,0.1050,-0.0936,0.4023,12.05,-5.22,-3.30,0.4262,13.5366,left
18843,0.1057,-0.0941,0.4006,11.27,-2.93,-3.44,0.4249,12.1384,left
18863,0.1030,-0.0889,0.3959,10.73,-1.10,-3.40,0.4186,11.3134,left
18883,0.1012,-0.0861,0.4045,10.37,-0.85,-3.83,0.4258,11.0850,left
18903,0.0991,-0.0883,0.4028,10.14,-0.93,-4.53,0.4241,11.1443,left
18923,0.0999,-0.0902,0.3992,9.45,-0.27,-4.47,0.4212,10.4592,left
18943,0.0948,-0.0902,0.4082,10.11,0.37,-4.89,0.4287,11.2317,left
18963,0.0864,-0.0850,0.4077,9.94,0.20,-5.59,0.4253,11.4037,left
18983,0.0881,-0.0828,0.4044,9.40,-1.21,-5.89,0.4221,11.1638,left
19003,0.0922,-0.0837,0.4132,9.19,-1.86,-4.98,0.4316,10.6166,left
19023,0.0920,-0.0754,0.4089,9.31,-1.82,-4.23,0.4259,10.3883,left
19043,0.0963,-0.0691,0.3986,8.50,-1.36,-4.23,0.4158,9.5940,left
19063,0.0941,-0.0693,0.3975,6.56,0.18,-3.60,0.4143,7.4909,left
19083,0.0944,-0.0729,0.4152,6.32,-0.32,-3.07,0.4319,7.0335,left
19103,0.0889,-0.0737,0.4124,7.31,-0.81,-3.16,0.4282,8.0076,left
19123,0.0831,-0.0641,0.4082,7.51,-1.63,-2.95,0.4215,8.2324,left
19143,0.0896,-0.0649,0.4104,6.93,-1.88,-1.68,0.4251,7.3749,left
19163,0.0944,-0.0697,0.4083,6.78,-0.99,-1.39,0.4248,6.9903,left
19183,0.0881,-0.0737,0.4106,7.31,-1.28,-1.60,0.4264,7.5957,left
19203,0.0896,-0.0675,0.4183,8.03,-1.62,-0.98,0.4331,8.2500,left
19223,0.0942,-0.0648,0.4238,8.99,-1.79,-0.40,0.4390,9.1767,left
19243,0.0975,-0.0640,0.4127,9.24,-2.21,0.08,0.4289,9.4985,left
19263,0.1060,-0.0632,0.4192,10.03,-1.02,-0.52,0.4370,10.0959,left
19283,0.1025,-0.0686,0.4329,12.53,-1.18,-1.66,0.4501,12.6989,left
19303,0.1002,-0.0621,0.4323,14.31,-2.06,-2.66,0.4480,14.6952,left
19323,0.0997,-0.0608,0.4225,16.05,-0.84,-3.73,0.4383,16.4939,left
19343,0.0918,-0.0500,0.4149,17.37,1.21,-3.45,0.4279,17.7544,left
19363,0.0881,-0.0398,0.4138,17.45,1.97,-2.78,0.4250,17.7796,left
19383,0.0912,-0.0410,0.4202,17.28,2.46,-1.69,0.4319,17.5384,left
19403,0.0889,-0.0422,0.4263,18.35,6.05,-0.73,0.4375,19.3353,left
19423,0.0669,-0.0271,0.4276,19.59,11.57,0.81,0.4337,22.7653,left
19443,0.0380,-0.0114,0.4274,20.52,18.02,4.79,0.4292,27.7230,left
19463,-0.0093,-0.0072,0.4268,20.78,21.37,13.74,0.4269,32.8238,left
19483,-0.0217,-0.0107,0.4408,22.40,18.32,24.24,0.4415,37.7499,left
19503,-0.0092,-0.0023,0.4362,25.85,15.19,31.79,0.4363,43.6945,left
19523,-0.0177,0.0109,0.4449,29.21,19.79,41.36,0.4454,54.3603,left
19543,-0.0490,0.0106,0.4514,30.72,21.89,52.21,0.4542,64.4139,left
19563,-0.0972,0.0159,0.4532,31.98,13.63,65.13,0.4638,73.8294,left
19583,-0.0730,0.0139,0.4340,32.46,-6.92,77.24,0.4403,84.0646,left
19603,-0.0189,0.0040,0.4333,34.63,-6.47,85.92,0.4338,92.8641,left
19623,-0.0245,0.0057,0.4341,35.40,-2.96,94.89,0.4348,101.3189,left
19643,-0.0149,-0.0062,0.4446,36.76,-4.66,105.95,0.4449,112.2476,left
19663,0.0277,-0.0045,0.4277,39.53,-3.30,113.53,0.4287,120.2562,left
19683,0.0496,0.0059,0.4104,39.33,9.24,119.48,0.4134,126.1258,left
19703,0.0068,0.0031,0.4037,35.25,19.40,128.92,0.4038,135.0503,left
19723,0.0048,-0.0076,0.4100,31.88,20.05,138.47,0.4101,143.5022,left
19743,0.0166,-0.0271,0.4460,30.66,12.05,143.05,0.4472,146.7965,left
19763,0.0084,-0.0266,0.4329,33.13,0.72,145.89,0.4338,149.6092,left
19783,0.0504,-0.0345,0.4072,31.16,-9.31,147.15,0.4118,150.6962,left
19803,0.1051,-0.0472,0.3942,32.95,-4.29,144.35,0.4107,148.1254,left
19823,0.0980,-0.0330,0.3910,33.27,5.36,141.57,0.4044,145.5273,left
19843,0.1016,-0.0208,0.3884,29.89,3.40,138.23,0.4020,141.4654,left
19863,0.1117,-0.0272,0.3914,24.17,0.38,135.86,0.4079,137.9959,left
19883,0.1202,-0.0243,0.3748,20.73,-4.44,129.88,0.3943,131.5973,left
19903,0.1343,-0.0153,0.3663,15.02,-7.22,124.12,0.3905,125.2363,left
19923,0.1281,-0.0227,0.3822,13.24,-6.21,115.39,0.4037,116.3121,left
19943,0.1328,-0.0160,0.3964,10.92,-11.33,106.63,0.4183,107.7803,left
19963,0.1632,0.0001,0.3889,9.94,-19.88,96.38,0.4218,98.9108,left
19983,0.1879,0.0020,0.3690,7.10,-25.60,83.16,0.4141,87.3015,left
20003,0.1984,-0.0043,0.3682,4.70,-21.02,74.15,0.4182,77.2185,left
20023,0.2150,0.0056,0.3665,0.81,-8.35,62.23,0.4249,62.7921,left
20043,0.1937,0.0099,0.3696,-3.24,1.40,51.04,0.4174,51.1600,left
20063,0.1675,0.0155,0.3773,-5.89,-2.49,41.98,0.4131,42.4693,left
20083,0.1552,0.0029,0.4042,-6.93,-14.49,32.26,0.4329,36.0366,left
20103,0.1439,0.0112,0.4127,-7.34,-26.81,21.08,0.4372,34.8883,left
20123,0.1659,0.0140,0.4017,-8.34,-32.78,11.63,0.4349,35.7668,left
20143,0.2125,0.0114,0.3948,-7.02,-30.21,2.53,0.4485,31.1226,left
20163,0.2120,0.0221,0.3955,-8.99,-21.86,-5.16,0.4493,24.1964,left
20183,0.1953,0.0134,0.3939,-9.95,-15.30,-12.98,0.4399,22.3944,left
20203,0.1937,0.0023,0.3854,-11.21,-9.94,-19.79,0.4313,24.8164,left
20223,0.1830,0.0029,0.3998,-10.58,-3.56,-26.53,0.4397,28.7866,left
20243,0.1545,0.0031,0.4198,-10.56,-6.85,-33.39,0.4474,35.6855,left
20263,0.1714,-0.0033,0.4047,-10.73,-15.77,-41.05,0.4395,45.2692,left
20283,0.2145,-0.0072,0.3787,-11.22,-17.66,-51.15,0.4352,55.2608,left
20303,0.2418,-0.0006,0.3589,-14.72,-14.87,-61.97,0.4328,65.4060,left
20323,0.2506,0.0028,0.3566,-19.76,-5.16,-71.21,0.4358,74.0758,left
20343,0.2286,-0.0104,0.3645,-24.27,2.40,-79.04,0.4304,82.7167,left
20363,0.2001,-0.0167,0.3744,-26.72,1.31,-88.05,0.4248,92.0196,left
20383,0.1761,-0.0012,0.3618,-28.92,-7.79,-97.74,0.4024,102.2250,left
20403,0.1732,-0.0127,0.3563,-33.79,-20.20,-104.26,0.3964,111.4430,left
20423,0.2137,-0.0103,0.3326,-38.11,-23.92,-110.12,0.3955,118.9595,left
20443,0.2629,-0.0170,0.3380,-43.24,-12.52,-118.89,0.4286,127.1216,left
20463,0.2332,-0.0541,0.3827,-45.97,6.09,-126.96,0.4514,135.1651,left
20483,0.1749,-0.0682,0.3978,-44.49,8.93,-131.02,0.4399,138.6579,left
20503,0.1406,-0.0491,0.4049,-43.01,1.85,-132.49,0.4314,139.3065,left
20523,0.1394,-0.0414,0.4050,-44.99,-11.65,-133.34,0.4303,141.2108,left
20543,0.1478,-0.0688,0.4131,-44.99,-14.44,-135.27,0.4441,143.2833,left
20563,0.1537,-0.0829,0.4351,-41.42,-5.27,-137.48,0.4688,143.6814,left
20583,0.1361,-0.0648,0.4307,-37.36,8.87,-134.61,0.4563,139.9800,left
20603,0.1237,-0.0469,0.4420,-34.98,14.29,-132.12,0.4614,137.4186,left
20623,0.0878,-0.0470,0.4351,-32.87,9.42,-130.50,0.4463,134.9090,left
20643,0.0940,-0.0508,0.4259,-30.84,2.38,-127.86,0.4391,131.5508,left
20663,0.0824,-0.0426,0.4017,-28.37,9.19,-123.07,0.4123,126.6295,left
20683,0.0475,-0.0421,0.4218,-27.54,17.47,-114.99,0.4265,119.5276,left
20703,0.0240,-0.0406,0.4426,-24.00,17.10,-106.49,0.4451,110.4907,left
20723,0.0295,-0.0225,0.4308,-21.94,8.63,-99.11,0.4324,101.8794,left
20743,0.0398,-0.0193,0.4291,-21.25,6.78,-90.82,0.4313,93.5236,left
20763,0.0164,-0.0344,0.4518,-17.63,14.23,-81.53,0.4534,84.6169,left
20783,-0.0197,-0.0148,0.4589,-15.73,13.10,-70.05,0.4595,72.9746,left
20803,-0.0214,-0.0054,0.4537,-13.74,5.05,-58.66,0.4543,60.4559,left
20823,0.0062,-0.0182,0.4413,-12.66,-2.27,-49.82,0.4417,51.4497,left
20843,0.0314,-0.0134,0.4270,-10.53,-1.27,-41.15,0.4284,42.4911,left
20863,0.0474,0.0011,0.4194,-8.17,2.93,-32.75,0.4221,33.8784,left
20883,0.0457,-0.0011,0.4308,-8.38,9.76,-26.23,0.4332,29.2128,left
20903,0.0195,-0.0138,0.4324,-7.86,8.20,-18.47,0.4330,21.6863,left
20923,0.0372,-0.0121,0.4290,-6.95,0.38,-11.10,0.4307,13.0994,left
20943,0.0607,-0.0129,0.4257,-6.08,-1.47,-6.89,0.4302,9.2995,left
20963,0.0588,-0.0100,0.4229,-4.21,-1.94,-3.30,0.4270,5.6912,left
20983,0.0710,-0.0133,0.4286,-2.23,-4.49,0.47,0.4346,5.0338,left
21003,0.0833,-0.0139,0.4282,-0.46,-5.25,2.84,0.4365,5.9880,left
21023,0.0962,-0.0134,0.4213,1.42,-5.74,3.76,0.4323,7.0053,left
21043,0.1064,-0.0115,0.4141,2.47,-3.37,4.21,0.4277,5.9378,left
21063,0.1136,-0.0142,0.4130,3.01,-1.05,4.09,0.4286,5.1862,left
21083,0.1118,-0.0160,0.4126,3.86,-0.03,3.94,0.4278,5.5169,left
21103,0.1119,-0.0187,0.4185,4.67,0.12,3.74,0.4336,5.9859,left
21123,0.1146,-0.0245,0.4207,5.74,-0.08,2.09,0.4367,6.1101,left
21143,0.1122,-0.0226,0.4227,6.72,-0.37,0.15,0.4379,6.7293,left
21163,0.1084,-0.0149,0.4203,6.72,-1.44,0.44,0.4343,6.8834,left
21183,0.1105,-0.0193,0.4221,6.18,-3.51,1.25,0.4368,7.2201,left
21203,0.1144,-0.0153,0.4149,5.83,-4.15,1.77,0.4307,7.3752,left
21223,0.1144,-0.0154,0.4181,5.68,-3.80,1.07,0.4337,6.9173,left
21243,0.1147,-0.0143,0.4236,5.39,-2.90,0.64,0.4391,6.1539,left
21263,0.1082,-0.0173,0.4188,5.56,-3.04,0.23,0.4329,6.3377,left
21283,0.1107,-0.0172,0.4175,5.65,-3.05,-0.09,0.4323,6.4219,left
21303,0.1141,-0.0128,0.4146,5.85,-2.66,-0.32,0.4302,6.4305,left
21323,0.1042,-0.0116,0.4169,5.83,-1.34,-0.26,0.4299,5.9904,right
21343,0.0999,-0.0146,0.4131,6.02,-3.65,0.05,0.4252,7.0356,right
21363,0.1088,-0.0109,0.4120,6.60,-5.02,-0.03,0.4262,8.2904,right
21383,0.1071,-0.0065,0.4067,6.06,-3.95,0.34,0.4206,7.2447,right
21403,0.0997,-0.0110,0.4060,5.44,-2.99,1.42,0.4182,6.3648,right
21423,0.1051,-0.0088,0.4122,5.22,-3.62,2.12,0.4255,6.6976,right
21443,0.1049,-0.0005,0.4052,4.64,-3.54,2.15,0.4185,6.2226,right
21463,0.1038,-0.0045,0.4054,4.61,-4.18,2.82,0.4185,6.8363,right
21483,0.1106,-0.0029,0.4000,4.35,-3.30,3.13,0.4150,6.2931,right
21503,0.1111,-0.0021,0.4042,4.14,-1.08,3.24,0.4192,5.3637,right
21523,0.1038,0.0015,0.4030,3.25,-0.87,3.59,0.4161,4.9198,right
21543,0.1055,-0.0056,0.4100,2.75,-2.20,4.17,0.4234,5.4550,right
21563,0.1097,-0.0017,0.4111,3.24,-2.55,3.98,0.4255,5.7319,right
21583,0.1097,0.0028,0.4020,2.70,-2.34,3.83,0.4167,5.2386,right
21603,0.1086,-0.0054,0.4111,2.23,-2.21,3.91,0.4253,5.0144,right
21623,0.1079,-0.0085,0.4100,2.14,-2.02,3.89,0.4241,4.8771,right
21643,0.1047,-0.0015,0.4082,2.46,-2.20,4.26,0.4214,5.3869,right
21663,0.1047,-0.0004,0.4110,1.24,-2.06,5.07,0.4241,5.6097,right
21683,0.1080,-0.0054,0.4100,0.89,-3.73,5.51,0.4241,6.7110,right
21703,0.1069,-0.0070,0.4102,0.66,-5.11,4.82,0.4239,7.0615,right
21723,0.1063,-0.0007,0.4091,0.14,-6.82,5.02,0.4227,8.4747,right
21743,0.1108,-0.0042,0.4106,-0.70,-10.35,4.50,0.4254,11.3103,right
21763,0.1312,-0.0092,0.4081,-1.19,-12.14,3.89,0.4288,12.8020,right
21783,0.1484,-0.0050,0.4017,-2.11,-10.12,2.63,0.4283,10.6673,right
21803,0.1548,-0.0093,0.4072,-2.70,-6.76,0.63,0.4357,7.3101,right
21823,0.1569,-0.0051,0.4027,-3.24,-4.55,-2.31,0.4322,6.0407,right
21843,0.1508,-0.0073,0.4061,-4.70,-4.63,-5.73,0.4333,8.7343,right
21863,0.1562,-0.0121,0.4099,-4.76,-7.68,-8.99,0.4388,12.7485,right
21883,0.1742,-0.0104,0.3984,-5.50,-9.77,-13.25,0.4350,17.3578,right
21903,0.1887,-0.0126,0.3939,-7.13,-7.77,-18.75,0.4370,21.5108,right
21923,0.1963,-0.0143,0.3855,-9.24,-5.89,-23.51,0.4328,25.9390,right
21943,0.1973,-0.0118,0.3906,-11.94,-4.93,-29.24,0.4378,31.9631,right
21963,0.2059,-0.0170,0.3971,-14.58,-5.48,-35.44,0.4476,38.7075,right
21983,0.1978,-0.0281,0.4097,-15.56,-8.27,-43.10,0.4558,46.5623,right
22003,0.2032,-0.0336,0.4060,-15.25,-13.69,-51.45,0.4553,55.3833,right
22023,0.2095,-0.0339,0.3940,-15.44,-10.67,-60.38,0.4475,63.2303,right
22043,0.2219,-0.0367,0.3945,-14.67,-2.67,-68.03,0.4542,69.6459,right
22063,0.2203,-0.0376,0.3948,-13.82,6.69,-75.71,0.4537,77.2503,right
22083,0.2021,-0.0365,0.3988,-13.05,16.55,-83.11,0.4486,85.7456,right
22103,0.1698,-0.0455,0.4083,-12.81,22.11,-88.81,0.4446,92.4113,right
22123,0.1152,-0.0558,0.4185,-11.33,19.01,-92.05,0.4376,94.6681,right
22143,0.0861,-0.0509,0.4189,-10.72,7.69,-92.87,0.4307,93.8027,right
22163,0.1072,-0.0403,0.4023,-10.31,0.26,-91.33,0.4183,91.9082,right
22183,0.1479,-0.0408,0.4083,-11.22,11.51,-90.90,0.4362,92.3113,right
22203,0.1097,-0.0568,0.4166,-9.86,29.21,-90.75,0.4346,95.8409,right
22223,0.0305,-0.0508,0.4406,-6.53,33.76,-85.33,0.4445,91.9949,right
22243,-0.0258,-0.0300,0.4220,-6.64,12.56,-78.05,0.4238,79.3292,right
22263,0.0193,-0.0146,0.3998,-10.82,-8.82,-72.37,0.4005,73.7017,right
22283,0.1091,-0.0398,0.3933,-10.82,-2.20,-68.38,0.4101,69.2680,right
22303,0.1112,-0.0399,0.4006,-9.07,25.30,-63.74,0.4177,69.1741,right
22323,0.0385,-0.0356,0.4204,-7.34,38.52,-58.92,0.4237,70.7725,right
22343,-0.0095,-0.0367,0.4349,-6.06,30.26,-53.85,0.4366,62.0638,right
22363,-0.0139,-0.0339,0.4258,-6.53,10.55,-49.77,0.4274,51.2947,right
22383,0.0239,-0.0282,0.4049,-6.63,-2.02,-45.37,0.4066,45.8995,right
22403,0.0825,-0.0159,0.3866,-6.56,-0.49,-43.47,0.3956,43.9613,right
22423,0.1021,-0.0154,0.3894,-7.36,13.53,-41.28,0.4028,44.0609,right
22443,0.0878,-0.0144,0.4015,-6.84,24.82,-40.40,0.4112,47.9056,right
22463,0.0511,-0.0172,0.4077,-8.35,27.69,-40.49,0.4113,49.7600,right
22483,0.0226,-0.0150,0.4017,-9.48,20.79,-39.25,0.4026,45.4201,right
22503,0.0509,-0.0237,0.4108,-9.79,14.40,-38.66,0.4146,42.3954,right
22523,0.0629,-0.0298,0.4056,-10.93,11.69,-38.89,0.4116,42.0516,right
22543,0.0120,-0.0336,0.4175,-8.78,16.26,-34.14,0.4190,38.8175,right
22563,-0.1149,-0.0305,0.4293,-9.98,26.53,-18.52,0.4455,33.8633,right
22583,-0.2202,-0.0339,0.4709,-10.73,16.43,1.65,0.5210,19.6920,right
22603,-0.1315,-0.0414,0.4856,-6.05,-27.95,7.73,0.5048,29.6255,right
22623,0.0027,-0.0428,0.4570,0.11,-42.43,12.32,0.4590,44.1803,right
22643,0.0830,-0.0299,0.4148,2.56,-32.03,13.86,0.4241,34.9958,right
22663,0.1243,-0.0262,0.4072,3.39,-9.79,14.69,0.4266,17.9713,right
22683,0.1018,-0.0317,0.4200,5.45,7.85,14.82,0.4334,17.6366,right
22703,0.0573,-0.0240,0.4229,6.60,10.14,15.01,0.4274,19.2742,right
22723,0.0343,-0.0374,0.4274,6.81,5.47,16.89,0.4304,19.0094,right
22743,0.0194,-0.0452,0.4351,9.11,0.38,17.62,0.4378,19.8400,right
22763,0.0105,-0.0380,0.4407,11.31,-7.71,18.49,0.4424,23.0055,right
22783,0.0391,-0.0250,0.4316,12.21,-11.31,21.21,0.4341,26.9603,right
22803,0.0679,-0.0319,0.4200,12.67,-5.37,24.76,0.4267,28.3316,right
22823,0.0740,-0.0287,0.4240,13.28,7.30,28.20,0.4313,32.0130,right
22843,0.0458,-0.0225,0.4198,13.39,16.05,31.42,0.4229,37.7352,right
22863,0.0197,-0.0083,0.4226,12.76,16.64,34.60,0.4231,40.4559,right
22883,0.0114,-0.0057,0.4260,11.97,14.46,38.12,0.4262,42.4923,right
22903,-0.0031,-0.0126,0.4266,11.18,9.88,41.24,0.4268,43.8512,right
22923,-0.0060,-0.0132,0.4255,11.21,5.88,44.53,0.4258,46.2972,right
22943,-0.0060,-0.0204,0.4197,11.18,3.89,48.47,0.4202,49.8970,right
22963,-0.0004,-0.0187,0.4098,10.44,2.31,53.60,0.4102,54.6594,right
22983,0.0116,-0.0144,0.4032,9.31,6.78,59.73,0.4036,60.8258,right
23003,0.0035,-0.0184,0.4106,7.95,15.79,65.36,0.4111,67.7071,right
23023,-0.0175,-0.0258,0.4282,8.23,16.84,71.21,0.4294,73.6315,right
23043,-0.0203,-0.0309,0.4309,9.05,11.37,77.37,0.4325,78.7279,right
23063,-0.0146,-0.0287,0.4207,10.40,4.72,78.17,0.4219,78.9973,right
23083,0.0120,-0.0251,0.4265,13.47,2.41,79.11,0.4274,80.2885,right
23103,0.0253,-0.0245,0.4388,16.41,3.47,78.85,0.4403,80.6193,right
23123,0.0127,-0.0199,0.4510,18.81,0.27,80.03,0.4517,82.2116,right
23143,0.0247,-0.0219,0.4337,21.82,-5.86,80.63,0.4350,83.7310,right
23163,0.0587,-0.0117,0.4188,23.33,-3.88,79.79,0.4231,83.2171,right
23183,0.0623,-0.0066,0.4185,24.31,4.58,79.48,0.4231,83.2403,right
23203,0.0383,-0.0090,0.4343,24.58,8.18,79.56,0.4361,83.6690,right
23223,0.0341,-0.0050,0.4344,25.62,1.34,79.77,0.4358,83.7945,right
23243,0.0499,-0.0022,0.4298,26.52,-5.42,78.81,0.4327,83.3278,right
23263,0.0696,0.0051,0.4139,27.15,-7.53,76.55,0.4198,81.5681,right
23283,0.0912,0.0088,0.4093,27.37,-3.92,72.61,0.4194,77.6984,right
23303,0.0717,0.0096,0.4185,27.40,-1.66,70.06,0.4247,75.2485,right
23323,0.0682,0.0146,0.4236,28.55,-7.74,68.43,0.4293,74.5474,right
23343,0.0867,0.0187,0.4061,29.30,-7.66,66.35,0.4157,72.9354,right
23363,0.1012,0.0299,0.4009,28.56,-4.12,62.50,0.4145,68.8453,right
23383,0.0894,0.0403,0.3942,28.08,-2.81,59.19,0.4062,65.5723,right
23403,0.0911,0.0425,0.4021,28.14,-1.94,56.78,0.4145,63.3978,right
23423,0.1017,0.0540,0.3960,27.57,-1.88,54.43,0.4124,61.0420,right
23443,0.0996,0.0609,0.3976,27.16,-2.52,50.92,0.4144,57.7622,right
23463,0.1069,0.0676,0.3854,26.40,-2.76,46.96,0.4056,53.9430,right
23483,0.1105,0.0779,0.3673,24.27,-1.65,42.03,0.3914,48.5649,right
23503,0.1021,0.0919,0.3774,21.54,-1.63,38.40,0.4017,44.0574,right
23523,0.1024,0.0989,0.3745,18.66,-5.31,34.50,0.4007,39.5829,right
23543,0.1149,0.1030,0.3677,14.81,-7.04,30.82,0.3987,34.9141,right
23563,0.1187,0.1046,0.3617,10.84,-5.19,26.31,0.3948,28.9208,right
23583,0.1177,0.1074,0.3669,7.07,-4.44,21.08,0.4000,22.6768,right
23603,0.1051,0.1100,0.3755,3.45,-8.12,16.35,0.4051,18.5805,right
23623,0.0996,0.1074,0.3923,0.17,-14.64,12.43,0.4188,19.2051,right
23643,0.1023,0.0989,0.4032,-1.79,-20.27,8.14,0.4276,21.9198,right
23663,0.1213,0.0957,0.4011,-2.40,-20.78,4.21,0.4299,21.3366,right
23683,0.1324,0.0968,0.3995,-3.56,-14.34,1.62,0.4319,14.8590,right
23703,0.1206,0.0967,0.4025,-5.10,-6.90,-0.02,0.4311,8.5804,right
23723,0.1033,0.0892,0.4142,-5.33,-3.97,-0.92,0.4361,6.7072,right
23743,0.0994,0.0868,0.4198,-4.67,-2.49,-2.55,0.4400,5.8753,right
23763,0.0865,0.0898,0.4182,-3.68,-2.93,-3.60,0.4364,5.9256,right
23783,0.0823,0.0874,0.4075,-3.77,-3.92,-3.37,0.4248,6.4031,right
23803,0.0812,0.0889,0.4120,-3.42,-4.11,-3.56,0.4292,6.4200,right
23823,0.0787,0.0814,0.4043,-3.37,-2.95,-2.67,0.4199,5.2158,right
23843,0.0754,0.0840,0.4132,-2.29,-3.73,-1.89,0.4284,4.7650,right
23863,0.0740,0.0840,0.4109,-1.36,-4.27,-0.73,0.4259,4.5450,right
23883,0.0886,0.0851,0.4030,-0.93,-4.09,-0.85,0.4213,4.2825,stop
23903,0.0892,0.0811,0.3998,-0.95,-1.11,-0.11,0.4176,1.4661,stop
23923,0.0850,0.0792,0.4050,0.15,-0.79,0.37,0.4214,0.8876,stop
23943,0.0879,0.0822,0.4064,0.67,-0.49,0.40,0.4238,0.9206,stop
23963,0.0861,0.0784,0.4006,0.38,-0.73,-0.24,0.4172,0.8616,stop
23983,0.0927,0.0845,0.4008,0.55,-0.81,-0.69,0.4199,1.1953,stop
24003,0.0937,0.0856,0.4001,0.12,0.52,-0.70,0.4198,0.8818,stop
24023,0.0925,0.0859,0.4016,-0.63,1.69,-1.27,0.4210,2.2067,stop
24043,0.0846,0.0808,0.4092,-0.38,0.12,-1.50,0.4256,1.5489,stop
24063,0.0831,0.0839,0.4070,-0.29,-0.61,-1.25,0.4238,1.4228,stop
24083,0.0847,0.0842,0.4082,-0.61,-0.95,-1.47,0.4253,1.8485,stop
24103,0.0854,0.0797,0.4044,-0.43,-1.47,-1.45,0.4210,2.1058,stop
24123,0.0853,0.0854,0.4064,0.00,-1.30,-2.12,0.4239,2.4875,stop
24143,0.0847,0.0831,0.4060,0.09,-2.00,-2.15,0.4230,2.9398,stop
24163,0.0867,0.0859,0.4073,0.08,-2.90,-2.40,0.4252,3.7637,stop
24183,0.0918,0.0867,0.4048,-0.12,-2.46,-3.11,0.4240,3.9695,stop
24203,0.0852,0.0852,0.4027,-0.31,-1.68,-3.65,0.4204,4.0284,stop
24223,0.0846,0.0859,0.3973,-1.07,-3.60,-3.85,0.4152,5.3783,stop
24243,0.0906,0.0857,0.3933,-2.02,-4.95,-4.09,0.4126,6.7284,stop
24263,0.0852,0.0867,0.3854,-4.03,-5.57,-5.54,0.4041,8.8324,stop
24283,0.0874,0.0836,0.3835,-6.85,-7.76,-5.36,0.4022,11.6558,stop
24303,0.0925,0.0858,0.3704,-10.29,-11.45,-6.27,0.3913,16.6244,stop
24323,0.0920,0.0887,0.3707,-14.93,-18.27,-7.62,0.3922,24.7982,stop
24343,0.0957,0.0850,0.3622,-19.48,-28.34,-9.36,0.3841,35.6373,stop
24363,0.1327,0.0781,0.3220,-24.89,-39.44,-16.17,0.3569,49.3540,stop
24383,0.1696,0.0894,0.2869,-34.34,-40.61,-19.82,0.3450,56.7528,stop
24403,0.1732,0.0844,0.2614,-46.52,-35.69,-23.07,0.3247,63.0103,stop
24423,0.1755,0.0649,0.2527,-57.76,-29.86,-28.64,0.3145,71.0480,stop
24443,0.1958,0.0536,0.2295,-69.19,-13.07,-32.63,0.3064,77.6055,stop
24463,0.1827,0.0420,0.2090,-85.33,7.50,-33.21,0.2808,91.8681,stop
24483,0.1548,0.0143,0.1945,-103.74,26.70,-30.37,0.2490,111.3428,stop
24503,0.1093,-0.0229,0.1986,-121.15,34.32,-29.98,0.2278,129.4338,stop
24523,0.0580,-0.0721,0.2386,-135.05,27.45,-29.04,0.2560,140.8409,stop
24543,0.0228,-0.1172,0.2518,-146.18,8.69,-29.39,0.2787,149.3611,stop
24563,0.0724,-0.1652,0.2542,-153.25,1.66,-32.93,0.3116,156.7590,stop
24583,0.1381,-0.1923,0.2507,-158.89,22.03,-36.15,0.3448,164.4292,stop
24603,0.0983,-0.2216,0.2662,-164.89,46.53,-32.89,0.3600,174.4538,stop
24623,0.0356,-0.2634,0.3057,-170.03,51.68,-29.57,0.4051,180.1546,stop
24643,-0.0422,-0.3054,0.3276,-172.49,34.08,-26.15,0.4499,177.7567,stop
24663,-0.0323,-0.3416,0.3281,-173.07,7.40,-27.16,0.4747,175.3433,stop
24683,0.0125,-0.3451,0.2986,-177.25,-9.24,-30.52,0.4565,180.0971,stop
24703,0.0438,-0.3646,0.3076,-181.60,-14.89,-26.84,0.4791,184.1782,stop
24723,0.0641,-0.4098,0.3069,-185.98,-12.49,-20.84,0.5160,187.5648,stop
24743,0.0535,-0.4565,0.3004,-186.49,-0.08,-15.31,0.5491,187.1162,stop
24763,0.0531,-0.4905,0.2808,-185.73,10.08,-11.34,0.5676,186.3439,stop
24783,0.0609,-0.5216,0.2910,-177.63,17.30,-7.37,0.6004,178.6261,stop
24803,0.0483,-0.5398,0.3380,-167.94,15.48,-3.40,0.6387,168.6853,stop
24823,0.0281,-0.5338,0.3290,-159.65,3.69,3.16,0.6277,159.7229,stop
24843,0.0409,-0.5425,0.2953,-150.78,-6.00,5.33,0.6190,150.9920,stop
24863,0.0708,-0.5533,0.2711,-146.31,-10.02,-0.78,0.6202,146.6498,stop
24883,0.0977,-0.5740,0.2723,-125.80,-6.18,-3.18,0.6428,125.9934,stop
24903,0.0950,-0.5551,0.2656,-111.85,-1.62,-0.73,0.6226,111.8614,stop
24923,0.0985,-0.5376,0.2623,-102.53,-3.13,2.70,0.6062,102.6177,stop
24943,0.0833,-0.5322,0.2290,-97.92,-6.23,6.46,0.5854,98.3339,stop
24963,0.0637,-0.5264,0.1704,-89.54,-10.82,8.89,0.5569,90.6305,stop
24983,0.0845,-0.5521,0.1696,-76.35,-17.10,6.38,0.5837,78.5023,stop
25003,0.1381,-0.5712,0.1833,-62.64,-14.82,-2.85,0.6156,64.4347,stop
25023,0.1348,-0.5558,0.1917,-50.17,-9.65,-5.91,0.6031,51.4279,stop
25043,0.1193,-0.5299,0.1644,-39.68,-9.91,-1.10,0.5675,40.9126,stop
25063,0.1378,-0.5330,0.1246,-30.96,-3.59,0.73,0.5644,31.1776,stop
25083,0.1323,-0.5405,0.1106,-21.40,8.32,-3.66,0.5674,23.2554,stop
25103,0.1031,-0.5426,0.1198,-10.58,11.57,-5.85,0.5652,16.7348,stop
25123,0.0807,-0.5419,0.1359,-0.67,5.33,-4.08,0.5644,6.7423,stop
25143,0.0944,-0.5469,0.1339,9.82,2.66,-5.40,0.5709,11.5168,stop
25163,0.0953,-0.5428,0.1444,20.00,5.60,-5.39,0.5698,21.4578,stop
25183,0.0840,-0.5425,0.1423,28.58,7.18,-3.66,0.5671,29.6941,stop
25203,0.0815,-0.5380,0.1522,36.67,5.65,-2.60,0.5650,37.1949,stop
25223,0.0781,-0.5427,0.1570,44.34,2.41,-1.19,0.5703,44.4174,stop
25243,0.1005,-0.5576,0.1619,54.47,2.96,-1.33,0.5893,54.5699,stop
25263,0.1018,-0.5549,0.1648,65.95,9.53,-2.34,0.5878,66.6796,stop
25283,0.0935,-0.5527,0.1786,78.20,13.30,-0.95,0.5883,79.3267,stop
25303,0.0771,-0.5525,0.1993,88.75,12.85,2.14,0.5924,89.6997,stop
25323,0.0762,-0.5610,0.2151,99.63,9.69,2.09,0.6057,100.1260,stop
25343,0.0706,-0.5598,0.2352,111.48,6.47,0.82,0.6113,111.6717,stop
25363,0.0632,-0.5529,0.2412,122.35,1.16,-0.09,0.6065,122.3567,stop
25383,0.0681,-0.5409,0.2390,131.97,-2.32,-0.35,0.5953,131.9903,stop
25403,0.0876,-0.5446,0.2678,142.79,-8.76,-3.91,0.6131,143.1159,stop
25423,0.1125,-0.5331,0.2697,153.36,-11.02,-9.44,0.6079,154.0436,stop
25443,0.1212,-0.5070,0.2592,163.21,-3.13,-12.34,0.5821,163.7016,stop
25463,0.1140,-0.4774,0.2706,170.18,5.40,-10.17,0.5605,170.5723,stop
25483,0.0884,-0.4552,0.2892,174.58,8.75,-5.30,0.5465,174.8795,stop
25503,0.0785,-0.4385,0.2920,176.40,6.41,-4.76,0.5326,176.5777,stop
25523,0.0707,-0.4196,0.2927,179.13,2.66,-6.70,0.5164,179.2748,stop
25543,0.0742,-0.3928,0.3085,182.69,-2.93,-9.94,0.5049,182.9807,stop
25563,0.0736,-0.3649,0.3107,185.94,-6.99,-10.76,0.4848,186.3814,stop
25583,0.0502,-0.3221,0.3073,184.55,-5.92,-6.72,0.4480,184.7668,stop
25603,0.0229,-0.2964,0.3206,179.28,-10.03,0.00,0.4372,179.5628,stop
25623,0.0314,-0.2719,0.3228,174.43,-20.81,2.52,0.4232,175.6824,stop
25643,0.0598,-0.2354,0.3099,171.45,-29.08,1.02,0.3937,173.9027,stop
25663,0.0837,-0.1877,0.2865,167.88,-28.50,1.33,0.3526,170.2857,stop
25683,0.0991,-0.1316,0.2490,160.03,-18.44,5.79,0.2986,161.1936,stop
25703,0.1007,-0.0919,0.2407,147.45,-4.98,11.95,0.2767,148.0179,stop
25723,0.0887,-0.0573,0.2444,131.47,4.20,16.93,0.2662,132.6179,stop
25743,0.0769,-0.0168,0.2422,113.73,-0.56,17.77,0.2547,115.1067,stop
25763,0.0763,0.0098,0.2468,96.37,-6.99,18.89,0.2585,98.4482,stop
25783,0.0913,0.0262,0.2548,80.53,-10.93,21.65,0.2719,84.1068,stop
25803,0.0922,0.0300,0.2720,67.10,-15.31,21.73,0.2887,72.1719,stop
25823,0.0957,0.0421,0.2780,55.76,-22.85,18.58,0.2970,63.0577,stop
25843,0.1215,0.0527,0.2798,44.75,-25.92,15.82,0.3095,54.0796,stop
25863,0.1606,0.0562,0.2838,35.77,-21.98,13.31,0.3309,44.0469,stop
25883,0.1703,0.0563,0.3054,27.85,-9.65,12.05,0.3542,31.8383,stop
25903,0.1367,0.0518,0.3524,22.20,-4.05,11.15,0.3815,25.1665,stop
25923,0.1273,0.0558,0.3575,17.27,-9.77,8.17,0.3836,21.4556,stop
25943,0.1454,0.0563,0.3414,13.21,-10.53,4.40,0.3753,17.4559,stop
25963,0.1692,0.0627,0.3478,10.12,-2.84,0.37,0.3918,10.5193,stop
25983,0.1582,0.0673,0.3646,6.84,3.57,-1.11,0.4031,7.7966,stop
26003,0.1350,0.0715,0.3782,3.82,3.91,-1.48,0.4079,5.6601,stop
26023,0.1188,0.0764,0.3796,0.24,1.19,-1.63,0.4051,2.0363,stop
26043,0.1299,0.0693,0.3927,-2.38,-3.16,-1.97,0.4194,4.4203,stop
26063,0.1250,0.0626,0.3861,-4.38,-5.36,-1.91,0.4106,7.1804,stop
26083,0.1323,0.0658,0.3923,-5.10,-4.95,-2.41,0.4192,7.5026,stop
26103,0.1306,0.0649,0.3922,-6.17,-3.36,-1.88,0.4185,7.2699,stop
26123,0.1234,0.0658,0.3926,-7.63,-1.15,-0.15,0.4167,7.7205,stop
26143,0.1212,0.0593,0.4009,-8.26,-2.67,-0.06,0.4230,8.6811,stop
26163,0.1184,0.0587,0.4062,-7.73,-3.86,-0.72,0.4272,8.6668,stop
26183,0.1163,0.0619,0.4124,-6.92,-4.90,0.20,0.4329,8.4787,stop
26203,0.1283,0.0630,0.4076,-7.16,-5.65,0.89,0.4319,9.1632,stop
26223,0.1366,0.0574,0.4098,-7.05,-4.58,1.18,0.4358,8.4918,stop
26243,0.1455,0.0559,0.4047,-5.92,-0.85,1.36,0.4336,6.1373,stop
26263,0.1366,0.0566,0.4119,-5.13,2.11,1.94,0.4376,5.8748,stop
26283,0.1261,0.0514,0.4221,-4.75,0.89,1.16,0.4435,4.9674,stop
26303,0.1241,0.0496,0.4124,-3.63,-2.99,0.05,0.4335,4.7074,stop
26323,0.1332,0.0524,0.4069,-2.44,-3.65,-0.29,0.4313,4.4006,stop
26343,0.1317,0.0569,0.4076,-2.38,-0.32,0.11,0.4321,2.4055,stop
