time_ms,ax,ay,az,gx,gy,gz,acc_mag,gyro_mag,label
44123,0.1080,0.0118,0.4181,-1.44,-0.35,0.31,0.4320,1.5087,idle
44143,0.1077,0.0104,0.4174,-1.01,-0.66,0.21,0.4311,1.2215,idle
44163,0.1097,0.0110,0.4200,0.06,-1.16,-0.73,0.4343,1.3737,idle
44183,0.1112,0.0117,0.4152,1.50,-0.98,-1.36,0.4300,2.2449,idle
44203,0.1084,0.0114,0.4166,2.34,-0.76,-1.71,0.4306,2.9938,idle
44223,0.1075,0.0112,0.4121,2.82,-0.87,-1.83,0.4261,3.4772,idle
44243,0.1058,0.0117,0.4171,3.21,-1.11,-1.51,0.4305,3.7156,idle
44263,0.1022,0.0156,0.4138,2.72,-1.85,-0.84,0.4265,3.3916,idle
44283,0.1071,0.0125,0.4188,2.78,-2.34,-0.32,0.4325,3.6442,idle
44303,0.1089,0.0159,0.4105,2.53,-2.41,-0.14,0.4250,3.5015,idle
44323,0.1115,0.0132,0.4087,2.23,-2.26,-0.31,0.4238,3.1886,idle
44343,0.1083,0.0138,0.4126,2.03,-2.81,-0.11,0.4268,3.4678,idle
44363,0.1055,0.0183,0.4135,1.56,-3.57,0.00,0.4271,3.8972,idle
44383,0.1111,0.0199,0.4098,1.47,-4.35,0.40,0.4250,4.6085,idle
44403,0.1102,0.0168,0.4043,1.31,-2.79,0.09,0.4194,3.0884,idle
44423,0.1045,0.0204,0.4106,1.05,-2.95,-0.18,0.4242,3.1346,idle
44443,0.1017,0.0159,0.4070,0.60,-3.62,0.09,0.4198,3.6681,idle
44463,0.1078,0.0121,0.4121,0.53,-3.91,0.23,0.4261,3.9514,idle
44483,0.1042,0.0151,0.4167,0.96,-4.03,0.21,0.4299,4.1492,idle
44503,0.1106,0.0142,0.4153,0.90,-4.35,0.41,0.4300,4.4625,idle
44523,0.1122,0.0060,0.4142,1.45,-3.89,0.09,0.4291,4.1555,idle
44543,0.1133,0.0127,0.4050,2.08,-2.49,-0.46,0.4208,3.2732,idle
44563,0.1104,0.0127,0.4093,1.82,-1.31,-0.37,0.4241,2.2713,idle
44583,0.1066,0.0118,0.4126,1.31,-0.37,0.09,0.4263,1.3662,idle
44603,0.1045,0.0143,0.4119,1.31,-1.40,0.21,0.4252,1.9345,idle
44623,0.1105,0.0162,0.4078,0.99,-2.18,0.26,0.4228,2.4122,idle
44643,0.1099,0.0154,0.4103,0.96,-2.18,0.12,0.4250,2.3888,idle
44663,0.1140,0.0143,0.4091,0.99,-1.85,0.17,0.4249,2.1037,idle
44683,0.1125,0.0118,0.4097,0.78,-2.15,-0.31,0.4250,2.3094,idle
44703,0.1106,0.0125,0.4120,1.10,-2.11,-0.47,0.4268,2.4231,idle
44723,0.1094,0.0159,0.4109,1.91,-4.17,-1.25,0.4255,4.7519,idle
44743,0.1074,0.0190,0.4081,1.68,-4.61,-1.79,0.4224,5.2220,idle
44763,0.1156,0.0194,0.4067,1.40,-2.69,-1.60,0.4233,3.4297,idle
44783,0.1156,0.0149,0.4128,1.56,-0.32,-1.27,0.4290,2.0331,idle
44803,0.1012,0.0238,0.4142,1.57,0.26,-1.27,0.4270,2.0362,idle
44823,0.1010,0.0237,0.4106,1.30,-2.18,-0.17,0.4235,2.5453,idle
44843,0.1097,0.0192,0.4137,0.79,-2.73,0.55,0.4284,2.8984,idle
44863,0.1106,0.0199,0.4167,1.30,-2.56,0.23,0.4316,2.8836,idle
44883,0.1078,0.0188,0.4143,1.02,-3.19,0.69,0.4285,3.4205,idle
44903,0.1074,0.0165,0.4181,1.18,-4.40,1.19,0.4320,4.7046,idle
44923,0.1112,0.0178,0.4152,1.63,-5.30,1.13,0.4302,5.6578,idle
44943,0.1134,0.0187,0.4099,2.09,-4.53,0.81,0.4257,5.0586,idle
44963,0.1135,0.0193,0.4087,2.11,-3.65,0.66,0.4246,4.2643,idle
44983,0.1162,0.0145,0.4098,2.56,-2.69,0.38,0.4262,3.7342,idle
45003,0.1095,0.0171,0.4147,2.56,-2.12,0.61,0.4292,3.3845,idle
45023,0.1069,0.0182,0.4078,2.70,-2.99,0.50,0.4220,4.0633,idle
45043,0.1154,0.0153,0.4077,2.41,-3.22,0.03,0.4240,4.0245,idle
45063,0.1140,0.0144,0.4100,2.82,-2.90,-0.66,0.4258,4.1016,idle
45083,0.1078,0.0171,0.4054,2.92,-3.51,-0.95,0.4198,4.6615,idle
45103,0.1141,0.0177,0.4083,2.26,-3.83,-0.82,0.4243,4.5244,idle
45123,0.1152,0.0142,0.4070,1.98,-3.18,-1.18,0.4232,3.9250,idle
45143,0.1161,0.0201,0.4086,1.36,-2.06,-1.82,0.4252,3.0651,idle
45163,0.1111,0.0160,0.4049,0.78,-1.74,-1.85,0.4202,2.6548,idle
45183,0.1036,0.0203,0.4103,0.15,-2.72,-1.08,0.4237,2.9297,idle
45203,0.1107,0.0179,0.4097,0.00,-3.82,-0.63,0.4247,3.8678,idle
45223,0.1168,0.0205,0.4114,0.37,-2.40,-0.81,0.4281,2.5562,idle
45243,0.1151,0.0195,0.4088,0.24,-1.02,-0.92,0.4252,1.3947,idle
45263,0.1066,0.0155,0.4185,0.44,-1.73,-0.76,0.4321,1.9378,idle
45283,0.1118,0.0146,0.4076,1.19,-3.47,-0.56,0.4229,3.7078,idle
45303,0.1207,0.0226,0.4066,1.16,-2.40,-0.55,0.4248,2.7191,idle
45323,0.1182,0.0220,0.4044,0.73,-0.87,-0.31,0.4219,1.1779,idle
45343,0.1162,0.0215,0.4102,1.05,-0.63,-0.96,0.4268,1.5578,idle
45363,0.1160,0.0208,0.4042,1.25,-1.25,-1.48,0.4210,2.3082,idle
45383,0.1169,0.0280,0.4052,1.10,-1.86,-1.45,0.4226,2.6041,idle
45403,0.1200,0.0239,0.4045,0.44,-1.51,-0.73,0.4226,1.7371,idle
45423,0.1155,0.0284,0.4059,-0.56,0.27,-0.15,0.4229,0.6465,idle
45443,0.1090,0.0220,0.4070,-0.95,-0.52,0.47,0.4219,1.1787,idle
45463,0.1088,0.0219,0.4119,-1.18,-1.73,0.67,0.4265,2.1931,idle
45483,0.1105,0.0233,0.4116,-0.84,-2.31,0.41,0.4268,2.4879,idle
45503,0.1101,0.0205,0.4148,-0.95,-1.76,0.95,0.4296,2.2078,idle
45523,0.1124,0.0153,0.4098,-0.56,-1.22,1.01,0.4252,1.6811,idle
45543,0.1174,0.0186,0.4120,0.29,-0.06,0.81,0.4288,0.8618,idle
45563,0.1093,0.0168,0.4144,0.99,-0.55,0.75,0.4289,1.3589,idle
45583,0.1107,0.0170,0.4144,1.63,-1.88,0.79,0.4293,2.6125,idle
45603,0.1178,0.0181,0.4099,1.74,-1.59,0.67,0.4269,2.4498,idle
45623,0.1144,0.0183,0.4097,1.53,-0.79,0.50,0.4257,1.7930,idle
45643,0.1115,0.0183,0.4098,1.25,-0.98,0.78,0.4251,1.7687,idle
45663,0.1099,0.0194,0.4110,1.48,-1.21,0.70,0.4259,2.0349,idle
45683,0.1117,0.0154,0.4117,1.19,-2.29,0.40,0.4269,2.6115,idle
45703,0.1150,0.0149,0.4089,1.15,-1.80,0.60,0.4251,2.2161,idle
45723,0.1125,0.0165,0.4119,0.92,-1.63,0.72,0.4273,2.0056,idle
45743,0.1104,0.0122,0.4104,0.90,-1.63,0.73,0.4252,2.0042,idle
45763,0.1147,0.0146,0.4048,1.08,-2.31,0.32,0.4210,2.5676,idle
45783,0.1106,0.0155,0.4131,0.99,-2.67,0.81,0.4279,2.9627,idle
45803,0.1162,0.0160,0.4095,0.67,-3.10,0.76,0.4260,3.2618,idle
45823,0.1178,0.0164,0.4054,0.67,-1.88,0.08,0.4225,1.9959,idle
45843,0.1100,0.0137,0.4067,0.66,-2.12,-0.50,0.4216,2.2778,idle
45863,0.1099,0.0154,0.4114,1.54,-3.37,-0.46,0.4261,3.7379,idle
45883,0.1180,0.0160,0.4078,1.19,-2.84,-1.21,0.4249,3.3071,idle
45903,0.1196,0.0171,0.4075,1.05,-1.10,-0.72,0.4250,1.6831,idle
45923,0.1121,0.0144,0.4133,1.37,-0.43,-0.82,0.4285,1.6584,idle
45943,0.1038,0.0184,0.4100,0.98,-1.89,-0.37,0.4234,2.1617,idle
45963,0.1116,0.0146,0.4097,0.87,-3.21,-0.87,0.4248,3.4342,idle
45983,0.1146,0.0175,0.4100,1.13,-2.50,-1.02,0.4261,2.9312,idle
46003,0.1136,0.0197,0.4104,0.84,-2.03,-0.56,0.4263,2.2688,idle
46023,0.1152,0.0184,0.4091,0.78,-1.47,-0.58,0.4254,1.7581,idle
46043,0.1139,0.0254,0.4073,0.03,-1.53,-0.60,0.4237,1.6390,idle
46063,0.1150,0.0186,0.4064,0.41,-1.01,-1.15,0.4227,1.5800,idle
46083,0.1093,0.0212,0.4105,0.55,-1.89,-0.60,0.4253,2.0593,idle
46103,0.1151,0.0210,0.4065,-0.02,-2.15,-0.58,0.4230,2.2295,idle
46123,0.1147,0.0189,0.4110,0.20,-1.04,-0.18,0.4271,1.0727,idle
46143,0.1095,0.0203,0.4097,0.05,-1.57,0.20,0.4245,1.5857,idle
46163,0.1117,0.0221,0.4130,0.24,-1.62,0.44,0.4284,1.6955,idle
46183,0.1110,0.0156,0.4132,0.26,-1.18,0.38,0.4281,1.2629,idle
46203,0.1067,0.0178,0.4127,0.27,-1.63,0.82,0.4267,1.8504,idle
46223,0.1138,0.0173,0.4110,0.64,-2.40,0.99,0.4268,2.6723,idle
46243,0.1145,0.0155,0.4106,0.64,-1.77,0.98,0.4266,2.1219,idle
46263,0.1129,0.0121,0.4105,1.19,-1.15,1.01,0.4259,1.9351,idle
46283,0.1102,0.0162,0.4089,1.10,-1.42,0.66,0.4238,1.9119,idle
46303,0.1140,0.0166,0.4055,1.04,-2.46,0.23,0.4216,2.6781,idle
46323,0.1144,0.0164,0.4056,0.60,-1.47,0.17,0.4218,1.5909,idle
46343,0.1160,0.0179,0.4081,0.23,-0.81,0.08,0.4246,0.8444,idle
46363,0.1082,0.0151,0.4097,-0.11,-0.08,0.08,0.4240,0.1519,idle
46383,0.1056,0.0134,0.4158,0.11,-1.33,0.20,0.4292,1.3472,idle
46403,0.1122,0.0154,0.4124,0.76,-2.35,0.32,0.4276,2.4927,idle
46423,0.1188,0.0194,0.4178,0.78,-1.15,0.17,0.4348,1.3948,idle
46443,0.1134,0.0183,0.4077,0.72,-0.35,0.14,0.4236,0.8106,idle
46463,0.1149,0.0150,0.4080,0.66,-0.66,-0.24,0.4241,0.9600,idle
46483,0.1091,0.0199,0.4097,0.58,-1.39,-0.47,0.4244,1.5782,idle
46503,0.1113,0.0187,0.4108,0.35,-2.06,-0.40,0.4260,2.1281,idle
46523,0.1146,0.0175,0.4102,-0.35,-1.79,0.00,0.4262,1.8204,idle
46543,0.1173,0.0144,0.4121,-0.58,-0.21,-0.56,0.4287,0.8375,idle
46563,0.1099,0.0127,0.4161,-0.18,-0.14,-1.13,0.4306,1.1527,idle
46583,0.1055,0.0153,0.4204,0.31,-2.03,-1.37,0.4337,2.4707,idle
46603,0.1064,0.0154,0.4149,0.49,-3.22,-0.96,0.4286,3.3972,idle
46623,0.1135,0.0148,0.4203,0.98,-2.24,-0.17,0.4356,2.4535,idle
46643,0.1127,0.0160,0.4142,1.57,-1.30,0.27,0.4295,2.0573,idle
46663,0.1058,0.0162,0.4136,2.12,-1.77,0.20,0.4272,2.7711,idle
46683,0.1121,0.0178,0.4087,2.23,-2.67,0.34,0.4242,3.4956,idle
46703,0.1158,0.0209,0.4056,1.94,-2.84,-0.27,0.4224,3.4495,idle
46723,0.1174,0.0193,0.4088,2.08,-2.00,-0.69,0.4258,2.9636,idle
46743,0.1066,0.0190,0.4077,1.36,-1.92,-0.81,0.4218,2.4903,idle
46763,0.1101,0.0096,0.4099,1.59,-3.13,-1.18,0.4246,3.7011,idle
46783,0.1158,0.0161,0.4092,1.88,-2.38,-1.62,0.4256,3.4377,idle
46803,0.1111,0.0223,0.4041,1.18,-1.15,-1.30,0.4196,2.0922,idle
46823,0.1111,0.0225,0.4047,0.29,-0.87,-0.81,0.4202,1.2232,idle
46843,0.1082,0.0198,0.4069,0.11,-1.07,-0.44,0.4215,1.1617,idle
46863,0.1062,0.0175,0.4132,0.02,-1.80,-0.85,0.4270,1.9942,idle
46883,0.1073,0.0120,0.4135,0.67,-2.92,-1.21,0.4273,3.2263,idle
46903,0.1116,0.0129,0.4132,0.87,-2.98,-1.04,0.4282,3.2708,idle
46923,0.1130,0.0157,0.4075,0.78,-1.30,-0.43,0.4232,1.5726,idle
46943,0.1112,0.0187,0.4045,0.95,0.03,-0.15,0.4200,0.9593,idle
46963,0.1083,0.0203,0.4084,0.72,0.99,-0.06,0.4230,1.2261,idle
46983,0.1057,0.0189,0.4070,-0.02,0.32,-0.31,0.4209,0.4430,idle
47003,0.1051,0.0177,0.4122,-0.09,-1.31,-0.41,0.4258,1.3792,idle
47023,0.1066,0.0211,0.4098,-0.87,-2.08,-0.12,0.4239,2.2546,idle
47043,0.1140,0.0181,0.4115,-0.98,-2.60,0.02,0.4274,2.7733,idle
47063,0.1213,0.0167,0.4111,-0.84,-1.33,0.08,0.4290,1.5733,idle
47083,0.1145,0.0182,0.4163,-0.61,0.11,-0.09,0.4321,0.6267,idle
47103,0.1101,0.0167,0.4202,0.26,-0.17,-0.05,0.4347,0.3125,idle
47123,0.1107,0.0161,0.4192,0.98,-1.10,-1.08,0.4339,1.8270,idle
47143,0.1089,0.0177,0.4114,1.27,-1.19,-1.16,0.4259,2.0905,idle
47163,0.1046,0.0189,0.4156,1.39,-1.04,-0.93,0.4290,1.9686,idle
47183,0.1014,0.0178,0.4142,1.05,-1.66,-0.46,0.4268,2.0221,idle
47203,0.1024,0.0149,0.4108,1.02,-2.95,0.23,0.4236,3.1275,idle
47223,0.1078,0.0145,0.4144,1.27,-2.02,0.41,0.4285,2.4160,idle
47243,0.1088,0.0145,0.4141,1.74,-1.74,0.89,0.4284,2.6158,idle
47263,0.1124,0.0186,0.4087,1.68,-1.83,1.16,0.4243,2.7428,idle
47283,0.1117,0.0153,0.4109,1.80,-2.23,0.52,0.4261,2.9126,idle
47303,0.1124,0.0184,0.4100,1.88,-2.34,0.20,0.4256,3.0037,idle
47323,0.1145,0.0149,0.4071,1.45,-2.20,-0.29,0.4232,2.6497,idle
47343,0.1106,0.0149,0.4136,1.34,-2.02,-0.69,0.4284,2.5176,forward
47363,0.1134,0.0186,0.4082,1.05,-1.48,-1.05,0.4241,2.1006,forward
47383,0.1074,0.0216,0.4089,0.50,-1.24,-1.59,0.4234,2.0747,forward
47403,0.1095,0.0161,0.4172,0.52,-1.80,-1.51,0.4317,2.4082,forward
47423,0.1154,0.0208,0.4146,0.60,-1.07,-1.01,0.4308,1.5849,forward
47443,0.1167,0.0262,0.4199,0.63,-0.49,-0.95,0.4366,1.2355,forward
47463,0.1158,0.0256,0.4215,0.29,-1.21,-0.58,0.4379,1.3695,forward
47483,0.1129,0.0220,0.4313,0.98,-2.37,-0.18,0.4464,2.5667,forward
47503,0.1158,0.0195,0.4342,2.44,-4.52,0.64,0.4498,5.1769,forward
47523,0.1295,0.0155,0.4530,5.05,-3.82,0.73,0.4714,6.3751,forward
47543,0.1370,0.0031,0.4740,9.77,-1.65,-1.51,0.4934,10.0237,forward
47563,0.1071,-0.0004,0.4907,16.98,-2.60,-3.40,0.5023,17.5085,forward
47583,0.1351,0.0007,0.4863,23.80,-5.33,-4.72,0.5048,24.8427,forward
47603,0.1550,-0.0079,0.5050,32.81,-2.72,-9.10,0.5283,34.1559,forward
47623,0.1549,-0.0171,0.5446,44.46,2.58,-12.72,0.5664,46.3132,forward
47643,0.1606,-0.0133,0.5480,58.73,3.77,-19.21,0.5712,61.9083,forward
47663,0.1633,-0.0066,0.5695,71.73,9.13,-16.52,0.5925,74.1669,forward
47683,0.1517,-0.0156,0.5771,87.86,13.48,-22.24,0.5970,91.6318,forward
47703,0.1318,0.0005,0.5729,106.98,14.11,-25.22,0.5879,110.8116,forward
47723,0.1041,0.0397,0.5338,120.70,12.72,-26.96,0.5453,124.3291,forward
47743,0.0759,0.0658,0.5037,130.53,8.61,-24.37,0.5136,133.0680,forward
47763,0.0541,0.0850,0.4972,138.20,-3.73,-21.39,0.5073,139.8935,forward
47783,0.0289,0.0941,0.4756,146.87,-25.25,-19.53,0.4857,150.2991,forward
47803,0.0359,0.1013,0.4498,154.73,-45.34,-19.98,0.4625,162.4736,forward
47823,0.0577,0.1001,0.4001,163.59,-66.23,-24.00,0.4165,178.1102,forward
47843,0.0806,0.1436,0.3475,172.14,-73.50,-31.01,0.3846,189.7220,forward
47863,0.1042,0.1503,0.3336,175.79,-63.63,-31.89,0.3805,189.6502,forward
47883,0.0692,0.1628,0.2645,184.38,-65.18,-36.70,0.3182,198.9762,forward
47903,0.0937,0.1890,0.2308,187.65,-66.55,-36.87,0.3127,202.4854,forward
47923,0.0886,0.2087,0.1719,189.25,-62.93,-39.62,0.2845,203.3378,forward
47943,0.0560,0.2521,0.1046,188.41,-60.23,-42.60,0.2786,202.3390,forward
47963,0.0853,0.2911,0.0576,186.02,-51.73,-44.37,0.3088,198.1049,forward
47983,0.1001,0.3073,0.0226,177.73,-37.47,-41.33,0.3239,186.2738,forward
48003,0.0557,0.3319,-0.0100,168.14,-27.56,-37.04,0.3367,174.3600,forward
48023,0.0513,0.3667,-0.0605,157.15,-24.18,-33.05,0.3752,162.3943,forward
48043,0.0825,0.3936,-0.0797,144.89,-15.92,-30.81,0.4099,148.9784,forward
48063,0.0917,0.4252,-0.1051,131.50,-3.86,-28.89,0.4475,134.6868,forward
48083,0.0867,0.4490,-0.1360,114.60,6.85,-27.89,0.4771,118.1403,forward
48103,0.1066,0.4716,-0.1404,97.82,35.73,-21.86,0.5034,106.4067,forward
48123,0.0819,0.4861,-0.1322,79.76,50.60,-15.53,0.5104,95.7181,forward
48143,0.0477,0.4911,-0.1190,61.08,51.51,-9.45,0.5076,80.4611,forward
48163,0.0500,0.5082,-0.1324,44.93,40.63,-6.12,0.5275,60.8832,forward
48183,0.0879,0.5334,-0.1681,25.92,37.34,-1.88,0.5662,45.4984,forward
48203,0.1012,0.5491,-0.1827,5.25,40.70,0.81,0.5875,41.0477,forward
48223,0.0668,0.5494,-0.1609,-15.40,36.61,3.62,0.5764,39.8840,forward
48243,0.0365,0.5377,-0.1165,-31.92,18.05,6.53,0.5514,37.2487,forward
48263,0.0527,0.5272,-0.0887,-45.54,-5.76,8.56,0.5372,46.6964,forward
48283,0.0906,0.5170,-0.0850,-57.08,-16.96,8.95,0.5317,60.2190,forward
48303,0.1399,0.5371,-0.1326,-71.08,-9.51,9.33,0.5706,72.3216,forward
48323,0.1814,0.5349,-0.1713,-91.88,21.25,12.23,0.5902,95.0933,forward
48343,0.1199,0.5067,-0.1105,-112.70,47.34,17.01,0.5323,123.4199,forward
48363,0.0624,0.4819,-0.0419,-130.17,46.21,22.11,0.4878,139.8861,forward
48383,0.0570,0.4473,-0.0176,-146.82,31.57,26.31,0.4512,152.4671,forward
48403,0.0881,0.4156,-0.0134,-161.40,25.13,28.21,0.4251,165.7678,forward
48423,0.0651,0.3816,0.0311,-176.24,19.11,27.83,0.3883,179.4492,forward
48443,0.0549,0.3490,0.0630,-186.40,6.90,31.65,0.3589,189.1906,forward
48463,0.0796,0.3215,0.0696,-196.31,0.79,36.00,0.3385,199.5806,forward
48483,0.1250,0.2904,0.0427,-209.01,14.56,40.61,0.3190,213.4140,forward
48503,0.1490,0.2410,0.0842,-218.20,46.85,43.74,0.2956,227.4185,forward
48523,0.1310,0.1960,0.1248,-228.09,78.23,49.30,0.2667,246.1216,forward
48543,0.0674,0.1394,0.2074,-232.85,91.19,47.95,0.2588,254.6307,forward
48563,0.0352,0.0953,0.2726,-233.82,85.65,44.31,0.2909,252.9209,forward
48583,-0.0128,0.0275,0.3706,-229.31,66.52,40.34,0.3718,242.1492,forward
48603,-0.0189,-0.0148,0.3702,-219.65,31.07,33.16,0.3710,224.3000,forward
48623,0.0391,-0.0225,0.3453,-210.37,8.17,26.75,0.3483,212.2173,forward
48643,0.0807,-0.0328,0.3561,-202.66,8.89,24.78,0.3666,204.3590,forward
48663,0.0937,-0.0759,0.4404,-196.00,17.50,24.18,0.4567,198.2598,forward
48683,0.0127,-0.1434,0.5186,-183.07,3.27,22.81,0.5382,184.5131,forward
48703,-0.0024,-0.1797,0.5438,-162.21,-17.05,21.45,0.5727,164.5121,forward
48723,0.0663,-0.1682,0.5049,-144.08,-35.36,18.31,0.5363,149.4768,forward
48743,0.1497,-0.1654,0.5007,-126.67,-29.39,13.21,0.5482,130.7053,forward
48763,0.1453,-0.1895,0.5504,-107.33,-20.43,8.72,0.6000,109.6021,forward
48783,0.1277,-0.2095,0.5637,-84.37,-16.49,2.23,0.6148,85.9915,forward
48803,0.1583,-0.2137,0.5597,-60.64,-8.73,-5.69,0.6197,61.5309,forward
48823,0.1666,-0.2080,0.5487,-39.86,9.05,-14.12,0.6100,43.2484,forward
48843,0.1250,-0.2003,0.5657,-20.41,23.42,-18.72,0.6130,36.2697,forward
48863,0.0551,-0.1945,0.5695,-3.53,18.93,-19.88,0.6043,27.6760,forward
48883,0.0267,-0.1813,0.5452,11.16,4.46,-18.87,0.5751,22.3721,forward
48903,0.0719,-0.1676,0.5240,24.40,-3.45,-20.47,0.5549,32.0355,forward
48923,0.1195,-0.1417,0.4701,32.46,7.60,-23.48,0.5053,40.7760,forward
48943,0.1056,-0.1278,0.4606,35.57,25.53,-20.09,0.4895,48.1735,forward
48963,0.0593,-0.1033,0.4449,36.37,28.15,-14.76,0.4606,48.3016,forward
48983,0.0366,-0.0762,0.4299,33.94,18.21,-9.53,0.4382,39.6781,forward
49003,0.0461,-0.0696,0.4314,30.43,4.99,-3.51,0.4394,31.0336,forward
49023,0.0780,-0.0656,0.4141,28.29,-4.85,-2.12,0.4264,28.7820,forward
49043,0.1028,-0.0511,0.3914,25.98,-4.05,-3.24,0.4078,26.4962,forward
49063,0.0963,-0.0365,0.3805,22.12,2.47,-3.31,0.3942,22.5052,forward
49083,0.0715,-0.0385,0.3890,16.76,5.15,-2.05,0.3974,17.6541,forward
49103,0.0461,-0.0398,0.3948,12.53,1.56,-1.11,0.3995,12.6798,forward
49123,0.0458,-0.0444,0.4038,8.32,-4.89,1.54,0.4088,9.7713,forward
49143,0.0729,-0.0494,0.3981,5.18,-8.09,4.40,0.4077,10.5638,forward
49163,0.0922,-0.0527,0.3894,2.41,-3.76,6.15,0.4036,7.6013,forward
49183,0.0831,-0.0543,0.3931,0.35,2.06,6.84,0.4054,7.1521,forward
49203,0.0674,-0.0623,0.4154,0.17,0.52,6.66,0.4254,6.6788,forward
49223,0.0714,-0.0624,0.4147,1.02,-5.50,4.76,0.4254,7.3447,forward
49243,0.0851,-0.0585,0.4073,1.18,-8.67,2.23,0.4202,9.0305,forward
49263,0.0981,-0.0605,0.4045,1.45,-7.51,0.44,0.4207,7.6630,forward
49283,0.1003,-0.0654,0.4109,2.14,-3.62,-1.16,0.4280,4.3597,forward
49303,0.0892,-0.0634,0.4146,3.10,-0.79,-1.92,0.4288,3.7331,forward
49323,0.0787,-0.0587,0.4166,3.27,0.60,-2.58,0.4280,4.2055,forward
49343,0.0778,-0.0609,0.4113,3.51,1.19,-3.16,0.4230,4.8720,left
49363,0.0750,-0.0636,0.4133,3.86,2.11,-3.85,0.4249,5.8447,left
49383,0.0685,-0.0612,0.4227,4.31,-0.17,-3.91,0.4326,5.8172,left
49403,0.0773,-0.0607,0.4154,4.49,-0.81,-3.27,0.4269,5.6104,left
49423,0.0795,-0.0620,0.4147,4.44,0.85,-2.85,0.4267,5.3497,left
49443,0.0779,-0.0588,0.4180,4.90,-0.38,-2.95,0.4292,5.7311,left
49463,0.0812,-0.0510,0.4132,5.54,-2.08,-2.98,0.4242,6.6248,left
49483,0.0844,-0.0515,0.4163,4.89,-2.52,-3.07,0.4278,6.2953,left
49503,0.0936,-0.0518,0.4059,4.00,-0.72,-2.87,0.4197,4.9752,left
49523,0.0901,-0.0507,0.4023,3.57,3.31,-3.27,0.4154,5.8663,left
49543,0.0743,-0.0511,0.4030,2.63,4.23,-2.75,0.4129,5.6861,left
49563,0.0706,-0.0492,0.4194,1.76,2.06,-2.43,0.4282,3.6364,left
49583,0.0620,-0.0516,0.4188,0.85,-1.19,-2.05,0.4265,2.5168,left
49603,0.0730,-0.0577,0.4177,0.70,-2.66,-0.87,0.4280,2.8823,left
49623,0.0708,-0.0536,0.4139,1.18,-0.56,-0.31,0.4234,1.3395,left
49643,0.0679,-0.0547,0.4246,2.18,-0.47,-0.46,0.4334,2.2804,left
49663,0.0691,-0.0472,0.4196,2.55,-2.08,-0.34,0.4278,3.3052,left
49683,0.0753,-0.0519,0.4154,2.58,-2.34,-0.73,0.4254,3.5568,left
49703,0.0823,-0.0525,0.4124,3.13,-1.51,-1.25,0.4237,3.6942,left
49723,0.0748,-0.0532,0.4186,3.82,-0.32,-1.60,0.4285,4.1522,left
49743,0.0720,-0.0504,0.4180,4.08,-1.21,-2.00,0.4271,4.6980,left
49763,0.0769,-0.0522,0.4199,4.27,-2.27,-2.23,0.4301,5.3308,left
49783,0.0797,-0.0471,0.4208,4.06,-2.06,-2.89,0.4308,5.3913,left
49803,0.0815,-0.0452,0.4194,3.94,-2.37,-3.18,0.4297,5.5856,left
49823,0.0826,-0.0459,0.4161,3.91,-0.76,-3.59,0.4267,5.3601,left
49843,0.0797,-0.0464,0.4180,3.62,-0.44,-3.94,0.4280,5.3669,left
49863,0.0770,-0.0436,0.4137,4.05,-0.41,-3.73,0.4231,5.5150,left
49883,0.0740,-0.0424,0.4202,4.05,-0.41,-3.42,0.4287,5.3135,left
49903,0.0725,-0.0386,0.4091,3.54,-0.24,-3.13,0.4172,4.7329,left
49923,0.0674,-0.0382,0.4132,3.30,0.67,-2.47,0.4204,4.1765,left
49943,0.0605,-0.0353,0.4208,3.04,0.11,-2.11,0.4266,3.6988,left
49963,0.0536,-0.0280,0.4172,3.65,-2.09,-1.11,0.4216,4.3510,left
49983,0.0576,-0.0267,0.4192,3.62,-3.34,0.75,0.4240,4.9831,left
50003,0.0526,-0.0271,0.4254,3.44,-2.47,3.01,0.4295,5.1926,left
50023,0.0398,-0.0258,0.4331,4.41,-3.04,6.29,0.4357,8.2622,left
50043,0.0439,-0.0297,0.4359,5.79,-5.19,9.22,0.4391,12.0607,left
50063,0.0443,-0.0208,0.4293,6.84,-4.05,11.45,0.4321,13.9378,left
50083,0.0382,-0.0239,0.4362,8.17,-4.38,14.72,0.4385,17.3931,left
50103,0.0348,-0.0284,0.4448,10.75,-5.92,18.09,0.4471,21.8613,left
50123,0.0295,-0.0193,0.4290,11.66,-5.48,22.06,0.4304,25.5496,left
50143,0.0237,-0.0209,0.4280,12.08,-2.47,27.71,0.4291,30.3281,left
50163,0.0189,-0.0250,0.4352,13.42,-1.60,33.47,0.4363,36.0917,left
50183,0.0043,-0.0139,0.4242,14.46,-0.69,40.06,0.4244,42.5957,left
50203,-0.0114,-0.0085,0.4268,13.76,-2.09,47.60,0.4270,49.5948,left
50223,-0.0333,-0.0269,0.4340,12.85,-4.20,56.99,0.4361,58.5748,left
50243,-0.0444,-0.0345,0.4303,13.79,-11.31,66.53,0.4340,68.8830,left
50263,-0.0267,-0.0282,0.4209,14.35,-16.87,76.24,0.4227,79.3962,left
50283,0.0002,-0.0402,0.4247,15.28,-15.10,84.20,0.4266,86.8960,left
50303,0.0083,-0.0509,0.4402,18.27,-10.85,90.99,0.4432,93.4420,left
50323,-0.0029,-0.0468,0.4364,20.85,-8.15,98.29,0.4389,100.8084,left
50343,0.0072,-0.0621,0.4427,24.27,-8.64,105.56,0.4471,108.6567,left
50363,0.0165,-0.0615,0.4421,28.89,-7.59,110.58,0.4467,114.5422,left
50383,0.0262,-0.0627,0.4379,30.89,-4.82,116.56,0.4431,120.6837,left
50403,0.0089,-0.0746,0.4467,33.63,-1.57,123.02,0.4529,127.5473,left
50423,-0.0057,-0.0745,0.4366,36.67,-10.14,130.35,0.4430,135.7903,left
50443,0.0435,-0.0648,0.4102,38.31,-17.05,133.82,0.4175,140.2321,left
50463,0.0951,-0.0599,0.3755,37.65,-12.58,135.18,0.3920,140.8834,left
50483,0.1348,-0.0573,0.3711,37.05,-1.62,134.26,0.3989,139.2882,left
50503,0.1154,-0.0486,0.3665,33.66,5.76,133.21,0.3872,137.5146,left
50523,0.1100,-0.0437,0.3867,29.60,3.25,131.82,0.4044,135.1391,left
50543,0.1140,-0.0518,0.3799,26.37,-1.63,127.04,0.4000,129.7557,left
50563,0.1392,-0.0574,0.3823,23.28,-7.66,119.69,0.4109,122.1786,left
50583,0.1863,-0.0536,0.3772,22.03,-10.55,110.20,0.4241,112.8731,left
50603,0.2252,-0.0303,0.3710,17.89,-7.21,100.00,0.4350,101.8435,left
50623,0.2218,-0.0245,0.3573,10.66,4.14,90.70,0.4213,91.4198,left
50643,0.2028,-0.0326,0.3813,5.07,7.85,79.66,0.4331,80.2100,left
50663,0.1923,-0.0262,0.3903,2.18,1.71,64.96,0.4358,65.0210,left
50683,0.1829,-0.0135,0.3895,-0.79,-1.34,53.05,0.4305,53.0764,left
50703,0.1617,-0.0144,0.3942,-4.21,-10.31,40.92,0.4263,42.4037,left
50723,0.1538,-0.0272,0.4049,-5.02,-18.53,30.89,0.4340,36.3685,left
50743,0.1566,-0.0233,0.4159,-4.98,-29.88,18.79,0.4450,35.6464,left
50763,0.1637,-0.0149,0.4092,-4.52,-38.56,8.63,0.4410,39.7754,left
50783,0.2024,-0.0151,0.3918,-4.50,-36.75,0.95,0.4413,37.0352,left
50803,0.2224,-0.0139,0.3861,-4.00,-17.92,-6.27,0.4458,19.4070,left
50823,0.2057,-0.0193,0.4052,-3.66,-1.71,-14.96,0.4548,15.4986,left
50843,0.1804,-0.0343,0.4200,-0.08,1.71,-23.11,0.4584,23.1778,left
50863,0.1742,-0.0260,0.4038,3.04,-2.96,-32.08,0.4405,32.3557,left
50883,0.1924,-0.0231,0.3922,2.23,-3.47,-41.24,0.4375,41.4420,left
50903,0.2042,-0.0258,0.3809,1.25,-1.48,-51.39,0.4329,51.4259,left
50923,0.2192,-0.0193,0.3712,-0.41,-0.21,-62.76,0.4316,62.7651,left
50943,0.2076,-0.0256,0.3934,-3.53,2.72,-73.71,0.4456,73.8443,left
50963,0.1859,-0.0411,0.4020,-4.66,-3.37,-84.43,0.4448,84.6231,left
50983,0.1873,-0.0380,0.3916,-5.74,-12.50,-96.18,0.4357,97.1623,left
51003,0.1952,-0.0336,0.3695,-7.30,-15.34,-106.40,0.4192,107.7450,left
51023,0.2122,-0.0347,0.3688,-9.11,-14.31,-116.29,0.4269,117.5206,left
51043,0.1892,-0.0422,0.3840,-11.68,-10.18,-124.49,0.4302,125.4492,left
51063,0.1477,-0.0479,0.4054,-12.70,-14.29,-130.84,0.4341,132.2293,left
51083,0.1108,-0.0441,0.4155,-12.92,-24.61,-132.61,0.4323,135.4921,left
51103,0.1472,-0.0265,0.3846,-14.41,-32.31,-135.73,0.4127,140.2593,left
51123,0.2076,-0.0099,0.3582,-18.76,-22.63,-139.82,0.4141,142.8731,left
51143,0.1868,-0.0161,0.3584,-24.14,-3.36,-140.44,0.4045,142.5414,left
51163,0.1447,-0.0254,0.3859,-27.65,7.71,-137.34,0.4129,140.3109,left
51183,0.0895,-0.0314,0.4100,-28.60,9.95,-133.95,0.4209,137.3336,left
51203,0.0713,-0.0244,0.4148,-29.69,1.33,-130.98,0.4216,134.3076,left
51223,0.1066,0.0074,0.3793,-32.26,-3.18,-127.10,0.3940,131.1678,left
51243,0.1155,0.0017,0.3805,-37.83,2.40,-122.90,0.3976,128.6142,left
51263,0.0829,-0.0051,0.3759,-40.21,14.44,-115.65,0.3849,123.2899,left
51283,0.0370,-0.0049,0.4015,-42.08,20.11,-108.40,0.4032,118.0026,left
51303,0.0255,0.0037,0.4097,-44.46,16.08,-97.30,0.4105,108.1749,left
51323,0.0194,-0.0007,0.4000,-45.33,16.92,-89.57,0.4005,101.8039,left
51343,-0.0424,-0.0010,0.4250,-45.92,16.76,-80.37,0.4272,94.0678,left
51363,-0.0520,-0.0281,0.4448,-44.37,5.19,-69.34,0.4487,82.4854,left
51383,-0.0359,-0.0303,0.4343,-42.75,-3.30,-59.33,0.4369,73.1991,left
51403,-0.0272,-0.0265,0.4384,-40.29,-3.31,-47.76,0.4400,62.5690,left
51423,-0.0121,-0.0392,0.4608,-35.80,-0.84,-37.56,0.4626,51.8941,left
51443,-0.0068,-0.0428,0.4653,-29.13,0.89,-29.11,0.4674,41.1944,left
51463,0.0007,-0.0437,0.4706,-21.80,3.27,-23.11,0.4726,31.9415,left
51483,-0.0409,-0.0499,0.5029,-14.32,-1.34,-15.34,0.5071,21.0311,left
51503,-0.0367,-0.0604,0.5020,-6.64,-20.31,-9.40,0.5069,23.3422,left
51523,0.0446,-0.0530,0.4761,1.76,-30.56,-5.44,0.4811,31.0940,left
51543,0.1215,-0.0399,0.4512,8.66,-17.69,-4.18,0.4689,20.1379,left
51563,0.1213,-0.0198,0.4426,12.18,1.94,-2.69,0.4594,12.6258,left
51583,0.0830,-0.0161,0.4399,14.08,10.31,-0.18,0.4480,17.4464,left
51603,0.0670,-0.0087,0.4364,13.74,2.76,4.11,0.4416,14.6049,left
51623,0.0851,-0.0074,0.4219,12.73,-4.43,5.59,0.4304,14.5928,left
51643,0.1058,-0.0083,0.4163,11.83,-7.18,5.62,0.4296,14.9349,left
51663,0.1127,-0.0098,0.4127,10.60,-6.06,5.63,0.4279,13.4438,left
51683,0.1039,-0.0106,0.4064,8.55,-5.10,6.98,0.4196,12.1564,left
51703,0.0920,-0.0105,0.4087,5.86,-5.24,8.72,0.4191,11.7383,left
51723,0.1000,-0.0210,0.4103,5.37,-7.68,8.98,0.4228,12.9785,left
51743,0.1104,-0.0203,0.4092,5.79,-8.23,8.31,0.4243,13.0452,left
51763,0.1128,-0.0240,0.4109,5.44,-7.21,7.71,0.4268,11.8706,left
51783,0.1250,-0.0237,0.4089,5.13,-3.73,6.79,0.4283,9.2924,left
51803,0.1188,-0.0251,0.4052,5.18,-0.78,5.73,0.4230,7.7570,left
51823,0.1038,-0.0250,0.4066,5.80,-1.57,4.81,0.4204,7.6980,left
51843,0.1124,-0.0232,0.4022,4.90,-3.25,3.69,0.4183,6.9457,left
51863,0.1102,-0.0272,0.4016,4.17,-3.44,2.82,0.4174,6.0950,left
51883,0.1097,-0.0231,0.3984,3.45,-4.06,2.20,0.4139,5.7646,left
51903,0.1174,-0.0287,0.3989,2.55,-2.79,1.19,0.4168,3.9654,left
51923,0.1150,-0.0316,0.4053,2.15,-0.50,-0.49,0.4225,2.2642,left
51943,0.1101,-0.0302,0.4080,2.26,0.00,-1.36,0.4236,2.6366,left
51963,0.1063,-0.0293,0.4124,1.40,-0.50,-1.02,0.4268,1.8091,left
51983,0.1021,-0.0248,0.4131,1.11,-0.21,-0.85,0.4262,1.4208,right
52003,0.1062,-0.0220,0.4163,0.67,-0.20,-0.85,0.4302,1.1053,right
52023,0.1034,-0.0215,0.4193,0.67,0.29,-0.34,0.4324,0.8051,right
52043,0.1051,-0.0197,0.4166,0.49,-1.19,0.15,0.4301,1.2962,right
52063,0.1080,-0.0195,0.4198,0.49,-1.92,0.20,0.4339,1.9946,right
52083,0.1096,-0.0114,0.4156,0.66,-1.53,0.09,0.4300,1.6644,right
52103,0.1068,-0.0182,0.4219,0.49,-0.60,0.82,0.4356,1.1282,right
52123,0.1045,-0.0199,0.4149,0.79,-1.34,0.93,0.4283,1.8173,right
52143,0.0999,-0.0197,0.4088,0.82,-2.05,0.38,0.4213,2.2385,right
52163,0.0996,-0.0171,0.4076,1.15,-2.84,0.55,0.4199,3.1108,right
52183,0.0970,-0.0159,0.4043,0.79,-3.01,1.27,0.4161,3.3588,right
52203,0.1027,-0.0131,0.4045,0.32,-2.73,2.55,0.4176,3.7512,right
52223,0.1033,-0.0156,0.4084,0.05,-1.11,2.49,0.4216,2.7271,right
52243,0.0979,-0.0175,0.4150,0.29,-1.45,2.32,0.4268,2.7519,right
52263,0.0978,-0.0194,0.4172,0.92,-3.11,2.20,0.4290,3.9208,right
52283,0.1071,-0.0177,0.4153,1.19,-4.08,2.24,0.4292,4.8033,right
52303,0.1003,-0.0190,0.4175,1.50,-3.66,2.49,0.4298,4.6752,right
52323,0.0969,-0.0245,0.4154,1.65,-3.88,3.11,0.4273,5.2399,right
52343,0.0977,-0.0219,0.4155,2.23,-4.96,3.85,0.4274,6.6626,right
52363,0.0959,-0.0210,0.4120,2.18,-5.21,4.58,0.4235,7.2696,right
52383,0.0907,-0.0206,0.4172,2.44,-5.69,5.13,0.4275,8.0443,right
52403,0.0912,-0.0225,0.4147,2.67,-7.34,6.18,0.4252,9.9648,right
52423,0.1010,-0.0225,0.4108,2.64,-9.28,7.44,0.4236,12.1828,right
52443,0.1108,-0.0190,0.4102,3.16,-9.44,7.79,0.4253,12.6347,right
52463,0.1198,-0.0175,0.4152,3.13,-8.99,6.58,0.4324,11.5740,right
52483,0.1254,-0.0162,0.4160,4.09,-10.00,5.44,0.4348,12.0947,right
52503,0.1368,-0.0132,0.4114,3.68,-11.01,3.51,0.4337,12.1258,right
52523,0.1525,-0.0162,0.4094,3.19,-10.69,0.58,0.4372,11.1683,right
52543,0.1672,-0.0182,0.4071,2.78,-10.67,-3.24,0.4405,11.4927,right
52563,0.1794,-0.0194,0.3984,2.31,-8.82,-7.74,0.4374,11.9624,right
52583,0.1847,-0.0227,0.4083,0.98,-7.60,-12.14,0.4487,14.3554,right
52603,0.2032,-0.0312,0.4066,0.49,-8.43,-18.58,0.4557,20.4079,right
52623,0.2200,-0.0381,0.4148,0.81,-10.72,-27.25,0.4711,29.2948,right
52643,0.2462,-0.0305,0.3972,1.11,-12.12,-38.55,0.4683,40.4260,right
52663,0.2581,-0.0248,0.3733,-1.11,-10.02,-50.92,0.4545,51.9037,right
52683,0.2719,-0.0289,0.3716,-3.92,-6.00,-63.79,0.4613,64.1879,right
52703,0.2804,-0.0372,0.3706,-4.76,1.57,-76.49,0.4662,76.6529,right
52723,0.2646,-0.0410,0.3590,-6.92,16.32,-87.57,0.4479,89.3484,right
52743,0.2395,-0.0424,0.3525,-9.97,30.37,-95.25,0.4283,100.4711,right
52763,0.2158,-0.0387,0.3517,-12.53,43.13,-100.76,0.4144,110.3202,right
52783,0.1552,-0.0377,0.3578,-17.45,50.17,-103.50,0.3918,116.3306,right
52803,0.0935,-0.0470,0.3859,-21.13,45.68,-105.47,0.3998,116.8592,right
52823,0.0833,-0.0510,0.4034,-22.76,37.02,-108.00,0.4151,116.4168,right
52843,0.0739,-0.0559,0.4087,-23.50,30.44,-110.05,0.4191,116.5715,right
52863,0.0228,-0.0688,0.4263,-23.11,25.69,-107.28,0.4324,112.7121,right
52883,-0.0649,-0.0754,0.4507,-22.92,3.18,-104.85,0.4615,107.3769,right
52903,-0.0602,-0.0764,0.4580,-19.25,-28.53,-99.36,0.4682,105.1523,right
52923,0.0511,-0.0742,0.4382,-16.12,-30.98,-95.94,0.4474,102.0969,right
52943,0.1222,-0.0723,0.4061,-12.63,5.48,-90.82,0.4302,91.8615,right
52963,0.0187,-0.0670,0.4242,-10.03,34.89,-82.63,0.4299,90.2478,right
52983,-0.0842,-0.0591,0.4458,-8.40,26.55,-71.10,0.4575,76.3577,right
53003,-0.0635,-0.0468,0.4481,-7.13,-1.22,-63.30,0.4550,63.7097,right
53023,-0.0016,-0.0485,0.4207,-6.29,-7.22,-57.54,0.4234,58.3335,right
53043,0.0430,-0.0327,0.3900,-4.27,-0.90,-54.41,0.3937,54.5873,right
53063,0.0502,-0.0247,0.3958,-4.05,9.63,-52.38,0.3997,53.4136,right
53083,0.0454,-0.0265,0.4026,-4.46,10.79,-51.22,0.4060,52.5358,right
53103,0.0403,-0.0190,0.3936,-5.76,7.30,-49.50,0.3961,50.3613,right
53123,-0.0265,-0.0255,0.4115,-6.55,9.73,-39.94,0.4131,41.6245,right
53143,-0.1927,-0.0162,0.4214,-6.92,26.49,-15.98,0.4637,31.7015,right
53163,-0.2902,-0.0012,0.4677,-10.50,-2.64,7.18,0.5504,12.9921,right
53183,-0.1174,-0.0240,0.4670,-7.68,-53.92,14.82,0.4822,56.4491,right
53203,0.0554,-0.0385,0.4387,-1.85,-55.80,17.11,0.4439,58.3963,right
53223,0.1613,-0.0333,0.4219,3.66,-29.68,15.30,0.4529,33.5904,right
53243,0.1647,-0.0215,0.4149,5.89,3.37,13.33,0.4469,14.9585,right
53263,0.1051,-0.0173,0.4327,5.92,18.99,15.51,0.4457,25.2271,right
53283,0.0640,-0.0306,0.4265,5.30,17.30,17.68,0.4324,25.2950,right
53303,0.0447,-0.0458,0.4294,5.91,9.19,18.64,0.4342,21.6073,right
53323,0.0360,-0.0442,0.4277,7.97,3.04,18.26,0.4315,20.1533,right
53343,0.0046,-0.0505,0.4351,8.06,1.68,23.21,0.4380,24.6237,right
53363,-0.0063,-0.0544,0.4369,8.08,-6.24,32.17,0.4403,33.7490,right
53383,0.0276,-0.0486,0.4207,8.58,-4.90,40.40,0.4243,41.5879,right
53403,0.0399,-0.0432,0.4065,8.40,7.13,46.87,0.4107,48.1473,right
53423,0.0194,-0.0371,0.4069,6.69,18.99,54.60,0.4090,58.1901,right
53443,-0.0289,-0.0507,0.4438,7.30,20.69,63.51,0.4477,67.1931,right
53463,-0.0491,-0.0511,0.4445,7.98,9.33,71.11,0.4501,72.1668,right
53483,-0.0405,-0.0541,0.4355,9.18,-3.18,77.04,0.4408,77.6476,right
53503,-0.0126,-0.0577,0.4253,11.39,-6.63,81.74,0.4294,82.7957,right
53523,0.0027,-0.0618,0.4249,13.98,-4.26,87.19,0.4294,88.4079,right
53543,-0.0020,-0.0596,0.4369,15.95,-4.85,93.62,0.4409,95.0920,right
53563,0.0034,-0.0616,0.4376,17.97,-5.83,99.54,0.4420,101.3189,right
53583,0.0039,-0.0654,0.4385,20.15,-6.34,105.51,0.4433,107.6055,right
53603,0.0372,-0.0583,0.4271,21.71,-3.48,110.61,0.4327,112.7748,right
53623,0.0458,-0.0475,0.4341,23.11,-1.83,112.93,0.4391,115.2871,right
53643,0.0422,-0.0557,0.4484,25.50,-3.73,114.09,0.4538,116.9651,right
53663,0.0543,-0.0558,0.4395,28.50,-8.73,114.49,0.4463,118.3062,right
53683,0.0944,-0.0428,0.4283,31.65,-10.49,113.89,0.4407,118.6731,right
53703,0.1317,-0.0391,0.4243,34.31,-6.40,110.64,0.4460,116.0140,right
53723,0.1423,-0.0305,0.4186,36.98,0.14,104.52,0.4432,110.8673,right
53743,0.1384,-0.0199,0.4037,38.18,8.12,100.81,0.4272,108.1037,right
53763,0.1339,-0.0145,0.4084,38.23,10.50,95.60,0.4301,103.4975,right
53783,0.1259,-0.0073,0.4087,38.17,5.66,89.34,0.4277,97.3198,right
53803,0.1404,-0.0026,0.4044,38.00,-4.72,80.66,0.4281,89.2845,right
53823,0.1548,0.0106,0.3898,36.99,-13.79,71.51,0.4195,81.6847,right
53843,0.1584,0.0206,0.3810,34.53,-20.46,62.08,0.4131,73.9231,right
53863,0.1846,0.0229,0.3716,32.87,-27.97,50.38,0.4155,66.3405,right
53883,0.2036,0.0430,0.3613,30.12,-27.69,39.22,0.4170,56.6803,right
53903,0.2039,0.0447,0.3617,24.95,-23.79,30.29,0.4176,45.8869,right
53923,0.1970,0.0496,0.3661,20.73,-19.01,22.40,0.4187,35.9550,right
53943,0.1730,0.0549,0.3762,16.75,-16.67,15.68,0.4177,28.3600,right
53963,0.1743,0.0579,0.3793,13.89,-13.85,9.65,0.4214,21.8602,right
53983,0.1578,0.0579,0.3728,12.27,-5.40,4.02,0.4090,14.0001,right
54003,0.1357,0.0653,0.3848,9.45,0.08,1.15,0.4132,9.5198,right
54023,0.1285,0.0669,0.3937,8.27,3.44,-1.05,0.4195,9.0212,right
54043,0.1094,0.0688,0.4041,7.21,3.33,-4.29,0.4242,9.0227,right
54063,0.0913,0.0706,0.4052,6.93,-0.75,-5.22,0.4213,8.7101,right
54083,0.0909,0.0759,0.4010,4.84,-5.30,-5.05,0.4181,8.7764,right
54103,0.0980,0.0762,0.4039,3.89,-7.79,-4.56,0.4226,9.8296,right
54123,0.1079,0.0756,0.4070,3.33,-6.85,-4.20,0.4278,8.7003,right
54143,0.1102,0.0796,0.4033,2.53,-3.36,-3.01,0.4256,5.1721,right
54163,0.1068,0.0823,0.4036,1.77,0.49,-1.13,0.4255,2.1567,right
54183,0.1030,0.0824,0.4000,0.95,2.85,-1.18,0.4212,3.2294,right
54203,0.0941,0.0789,0.4126,1.08,1.22,-0.95,0.4305,1.8875,right
54223,0.0896,0.0807,0.4121,1.50,-2.20,-0.11,0.4294,2.6614,right
54243,0.1042,0.0807,0.4087,0.92,-3.15,1.16,0.4294,3.4752,right
54263,0.1119,0.0808,0.4058,0.67,-0.95,0.72,0.4286,1.3646,right
54283,0.1033,0.0764,0.3993,0.90,0.90,0.52,0.4195,1.3756,right
54303,0.0975,0.0764,0.4037,0.81,0.72,1.05,0.4223,1.5098,right
54323,0.0989,0.0757,0.4083,0.76,0.32,1.50,0.4269,1.7100,right
54343,0.0942,0.0751,0.4059,0.40,0.49,1.68,0.4234,1.7935,right
54363,0.0928,0.0717,0.4059,0.03,-1.71,1.98,0.4225,2.6199,right
54383,0.1010,0.0732,0.4053,0.12,-2.89,1.25,0.4240,3.1477,stop
54403,0.1024,0.0767,0.4092,-0.09,-2.87,0.78,0.4287,2.9754,stop
54423,0.1049,0.0717,0.4043,-0.46,-3.76,-0.49,0.4238,3.8150,stop
54443,0.1018,0.0690,0.4031,-0.29,-3.66,-1.15,0.4214,3.8498,stop
54463,0.1057,0.0654,0.4088,-0.06,-3.25,-1.65,0.4273,3.6466,stop
54483,0.1063,0.0701,0.4038,0.02,-1.79,-2.03,0.4234,2.7044,stop
54503,0.0968,0.0703,0.4054,0.15,-0.63,-1.97,0.4227,2.0722,stop
54523,0.0934,0.0708,0.4075,0.18,-2.08,-1.66,0.4240,2.6672,stop
54543,0.1005,0.0715,0.4103,0.38,-3.57,-1.94,0.4284,4.0826,stop
54563,0.0985,0.0692,0.4137,1.11,-4.49,-2.00,0.4309,5.0388,stop
54583,0.0984,0.0723,0.4126,1.36,-5.10,-1.73,0.4303,5.5520,stop
54603,0.1066,0.0732,0.4135,1.85,-5.51,-1.92,0.4332,6.1228,stop
54623,0.0991,0.0719,0.4131,2.66,-5.15,-2.44,0.4309,6.2845,stop
54643,0.1050,0.0739,0.4062,3.15,-4.84,-1.69,0.4260,6.0155,stop
54663,0.1110,0.0703,0.4056,3.53,-4.26,-1.31,0.4264,5.6838,stop
54683,0.1157,0.0728,0.4072,4.06,-3.05,-2.55,0.4296,5.6847,stop
54703,0.1140,0.0797,0.3979,4.18,-3.19,-3.47,0.4216,6.3001,stop
54723,0.1195,0.0847,0.3955,3.54,-4.29,-4.92,0.4218,7.4241,stop
54743,0.1251,0.0803,0.3898,2.49,-5.07,-6.26,0.4172,8.4301,stop
54763,0.1367,0.0892,0.3693,0.55,-5.45,-8.41,0.4037,10.0386,stop
54783,0.1554,0.0944,0.3557,-4.17,-2.47,-10.98,0.3995,11.9994,stop
54803,0.1628,0.0918,0.3381,-9.13,1.16,-14.99,0.3864,17.5918,stop
54823,0.1593,0.0881,0.3250,-15.18,1.71,-19.30,0.3725,24.6094,stop
54843,0.1543,0.0901,0.3149,-22.56,-1.22,-24.60,0.3621,33.4006,stop
54863,0.1465,0.0831,0.3046,-30.81,-10.20,-29.94,0.3480,44.1537,stop
54883,0.1713,0.0741,0.2758,-40.44,-17.40,-36.85,0.3330,57.4180,stop
54903,0.2152,0.0676,0.2372,-50.73,-10.37,-45.60,0.3273,68.9994,stop
54923,0.2213,0.0555,0.2010,-63.73,14.20,-53.16,0.3041,84.1933,stop
54943,0.1854,0.0404,0.1729,-79.28,40.08,-56.75,0.2567,105.4143,stop
54963,0.1014,-0.0071,0.2151,-95.80,54.76,-58.43,0.2379,124.8628,stop
54983,-0.0353,-0.0381,0.2510,-109.34,43.31,-54.61,0.2563,129.6701,stop
55003,-0.1095,-0.0493,0.2618,-125.63,-4.31,-46.32,0.2881,133.9699,stop
55023,-0.0460,-0.0645,0.2250,-144.08,-54.75,-40.52,0.2385,159.3648,stop
55043,0.1071,-0.1198,0.2024,-158.47,-64.49,-45.89,0.2584,177.1404,stop
55063,0.1893,-0.1548,0.1805,-169.02,-28.32,-46.67,0.3040,177.6205,stop
55083,0.1279,-0.1884,0.1847,-185.18,17.24,-37.83,0.2932,189.7850,stop
55103,0.0312,-0.2589,0.2085,-199.15,36.60,-27.60,0.3339,204.3524,stop
55123,-0.0148,-0.3124,0.2358,-207.45,24.73,-18.46,0.3917,209.7333,stop
55143,-0.0269,-0.3694,0.2673,-213.11,3.88,-11.76,0.4568,213.4737,stop
55163,0.0144,-0.4342,0.2793,-216.21,-1.56,-9.95,0.5165,216.4484,stop
55183,0.0507,-0.4789,0.2845,-214.61,11.10,-11.39,0.5593,215.1991,stop
55203,0.0353,-0.4930,0.2953,-213.82,25.60,-9.69,0.5758,215.5623,stop
55223,-0.0114,-0.5165,0.3146,-213.13,29.28,2.40,0.6048,215.1453,stop
55243,-0.0363,-0.5558,0.3251,-207.27,13.40,12.81,0.6449,208.0948,stop
55263,-0.0243,-0.5880,0.3239,-194.38,-14.06,10.02,0.6717,195.1468,stop
55283,0.0303,-0.5952,0.3219,-181.22,-33.31,1.08,0.6774,184.2610,stop
55303,0.0710,-0.5759,0.3063,-178.00,-35.59,-0.87,0.6562,181.5248,stop
55323,0.0964,-0.5937,0.3059,-164.34,-37.85,7.48,0.6748,168.8036,stop
55343,0.1344,-0.6237,0.2787,-141.24,-33.36,11.13,0.6962,145.5489,stop
55363,0.1473,-0.6316,0.2861,-117.42,-19.98,6.58,0.7089,119.2900,stop
55383,0.1479,-0.6272,0.3081,-96.75,-11.11,0.95,0.7143,97.3890,stop
55403,0.1371,-0.6208,0.2972,-75.42,-8.00,3.98,0.7019,75.9476,stop
55423,0.1403,-0.6274,0.2758,-48.24,0.44,8.81,0.6996,49.0439,stop
55443,0.1306,-0.6226,0.2651,-21.10,7.98,10.58,0.6892,24.9173,stop
55463,0.1208,-0.6094,0.2577,1.98,13.28,9.74,0.6726,16.5903,stop
55483,0.1248,-0.5826,0.2539,21.13,17.57,8.12,0.6477,28.6571,stop
55503,0.1211,-0.5570,0.2585,36.32,23.88,7.40,0.6259,44.0927,stop
55523,0.0813,-0.5275,0.2432,40.93,14.09,9.98,0.5865,44.4257,stop
55543,0.1011,-0.5446,0.2184,47.94,10.69,6.87,0.5954,49.5939,stop
55563,0.1034,-0.5580,0.2268,61.56,11.34,-1.24,0.6111,62.6059,stop
55583,0.1016,-0.5514,0.2198,76.55,12.69,-6.66,0.6022,77.8788,stop
55603,0.0846,-0.5345,0.2412,85.21,13.40,-4.49,0.5925,86.3708,stop
55623,0.0825,-0.5522,0.2695,97.51,11.63,-0.81,0.6200,98.2063,stop
55643,0.0813,-0.5551,0.2563,108.55,5.30,-2.23,0.6168,108.7017,stop
55663,0.0868,-0.5394,0.2349,121.98,3.53,-6.37,0.5947,122.2017,stop
55683,0.1033,-0.5216,0.2317,133.86,7.77,-9.22,0.5800,134.4047,stop
55703,0.0894,-0.5109,0.2601,144.20,13.66,-8.47,0.5802,145.0921,stop
55723,0.0688,-0.5068,0.2906,152.00,11.98,-4.26,0.5883,152.5312,stop
55743,0.0614,-0.5033,0.3008,160.32,4.49,-4.34,0.5895,160.4420,stop
55763,0.0581,-0.4760,0.2875,169.50,-0.75,-7.01,0.5591,169.6426,stop
55783,0.0555,-0.4518,0.3032,176.53,-4.03,-7.88,0.5469,176.7560,stop
55803,0.0464,-0.4202,0.3013,180.52,-9.40,-7.76,0.5191,180.9302,stop
55823,0.0250,-0.3857,0.3208,181.76,-11.27,-4.43,0.5023,182.1584,stop
55843,0.0283,-0.3651,0.3262,182.49,-21.24,-5.18,0.4904,183.7930,stop
55863,0.0361,-0.3324,0.3295,183.30,-29.50,-7.25,0.4694,185.7974,stop
55883,0.0466,-0.3091,0.3340,183.31,-32.69,-7.56,0.4574,186.3577,stop
55903,0.0631,-0.2738,0.2942,178.85,-36.72,-10.44,0.4068,182.8834,stop
55923,0.0856,-0.2272,0.2754,174.23,-30.81,-12.96,0.3671,177.4062,stop
55943,0.0930,-0.1832,0.2812,168.29,-19.97,-10.37,0.3483,169.7875,stop
55963,0.0771,-0.1381,0.2855,159.28,-16.18,-5.47,0.3264,160.1957,stop
55983,0.0618,-0.0902,0.2449,142.17,-18.00,-1.11,0.2682,143.3072,stop
56003,0.0896,-0.0480,0.2131,120.29,-15.94,-2.89,0.2361,121.3758,stop
56023,0.0767,-0.0437,0.2631,102.67,-13.74,-3.01,0.2775,103.6308,stop
56043,0.0691,-0.0237,0.2690,94.14,-22.05,4.70,0.2788,96.7987,stop
56063,0.0847,0.0031,0.2533,78.92,-27.98,4.98,0.2671,83.8788,stop
56083,0.0896,0.0063,0.2885,66.61,-29.19,8.14,0.3021,73.1800,stop
56103,0.1135,0.0090,0.2977,58.05,-33.13,9.83,0.3188,67.5542,stop
56123,0.1334,0.0211,0.2844,50.87,-31.51,7.45,0.3149,60.3014,stop
56143,0.1427,0.0415,0.2882,45.04,-23.10,5.66,0.3243,50.9322,stop
56163,0.1525,0.0542,0.3047,39.31,-12.79,6.20,0.3450,41.8045,stop
56183,0.1605,0.0551,0.3158,34.26,-2.40,5.57,0.3585,34.7924,stop
56203,0.1416,0.0659,0.3315,28.73,3.04,5.71,0.3665,29.4518,stop
56223,0.1265,0.0688,0.3422,22.44,0.75,8.00,0.3712,23.8377,stop
56243,0.1383,0.0746,0.3412,16.15,-3.71,9.10,0.3756,18.9068,stop
56263,0.1580,0.0790,0.3370,10.12,-4.23,7.91,0.3805,13.5235,stop
56283,0.1676,0.0728,0.3494,5.54,-2.63,5.69,0.3943,8.3689,stop
56303,0.1686,0.0775,0.3547,2.00,1.34,3.94,0.4003,4.6174,stop
56323,0.1570,0.0771,0.3665,-2.34,3.68,3.34,0.4061,5.4930,stop
56343,0.1523,0.0724,0.3800,-5.76,2.73,2.66,0.4158,6.9032,stop
56363,0.1604,0.0618,0.3844,-6.82,3.02,1.50,0.4211,7.6124,stop
56383,0.1501,0.0648,0.3979,-8.00,5.33,0.20,0.4302,9.6140,stop
56403,0.1361,0.0546,0.4105,-8.18,4.90,0.60,0.4359,9.5570,stop
56423,0.1305,0.0500,0.4125,-6.79,2.60,0.96,0.4355,7.3361,stop
56443,0.1367,0.0624,0.4126,-5.85,1.62,1.45,0.4391,6.2381,stop
56463,0.1255,0.0609,0.4222,-5.36,0.60,2.49,0.4447,5.9383,stop
56483,0.1328,0.0562,0.4233,-3.73,-3.08,2.70,0.4472,5.5399,stop
56503,0.1357,0.0543,0.4224,-2.63,-4.56,2.18,0.4470,5.7009,stop
56523,0.1429,0.0552,0.4106,-1.21,-4.52,1.71,0.4383,4.9800,stop
56543,0.1466,0.0568,0.4105,0.06,-2.15,1.54,0.4396,2.6487,stop
56563,0.1407,0.0568,0.4148,0.70,-0.81,1.53,0.4417,1.8652,stop
56583,0.1361,0.0546,0.4072,0.69,-1.13,1.74,0.4328,2.1858,stop
56603,0.1388,0.0544,0.3978,0.76,-1.98,1.50,0.4248,2.6001,stop
56623,0.1433,0.0546,0.4012,0.49,-2.29,0.98,0.4295,2.5373,stop
56643,0.1398,0.0559,0.4041,0.34,-2.78,0.73,0.4312,2.8932,stop
56663,0.1445,0.0530,0.3993,0.99,-2.98,0.15,0.4279,3.1418,stop
56683,0.1404,0.0618,0.3893,0.12,-0.98,0.05,0.4184,0.9858,stop
56703,0.1344,0.0542,0.4019,-0.84,-0.40,0.52,0.4272,1.0640,stop
