time_ms,ax,ay,az,gx,gy,gz,acc_mag,gyro_mag,label
17181,0.1101,0.0311,0.4117,-0.61,-0.85,-0.98,0.4273,1.4348,idle
17201,0.1056,0.0328,0.4087,0.09,-2.29,-2.03,0.4234,3.0620,idle
17221,0.1102,0.0334,0.4092,0.76,-3.19,-2.49,0.4251,4.1179,idle
17241,0.1156,0.0385,0.4098,0.85,-1.04,-2.02,0.4275,2.4228,idle
17261,0.1033,0.0345,0.4032,-0.26,1.08,-1.08,0.4176,1.5548,idle
17281,0.1002,0.0309,0.4119,-0.60,0.92,0.09,0.4250,1.0964,idle
17301,0.1035,0.0323,0.4137,-0.29,-0.90,-0.03,0.4277,0.9468,idle
17321,0.1040,0.0327,0.4152,-0.08,-2.27,-0.08,0.4292,2.2774,idle
17341,0.1111,0.0310,0.4141,0.15,-3.13,-0.29,0.4298,3.1469,idle
17361,0.1113,0.0303,0.4104,-0.03,-2.76,-0.18,0.4263,2.7696,idle
17381,0.1068,0.0315,0.4094,-0.02,-2.00,0.44,0.4243,2.0485,idle
17401,0.1106,0.0270,0.4105,-0.12,-1.82,0.52,0.4260,1.8934,idle
17421,0.1119,0.0294,0.4082,0.55,-0.64,-0.21,0.4243,0.8712,idle
17441,0.1077,0.0311,0.4156,0.82,-0.47,-0.35,0.4305,1.0134,idle
17461,0.1071,0.0293,0.4103,0.93,-1.39,-0.32,0.4250,1.7030,idle
17481,0.1119,0.0360,0.4075,0.29,-1.40,-0.14,0.4241,1.4408,idle
17501,0.1117,0.0347,0.4050,0.09,-0.78,0.03,0.4216,0.7846,idle
17521,0.1097,0.0330,0.4020,-0.18,-0.66,-0.26,0.4180,0.7293,idle
17541,0.1101,0.0333,0.4093,-0.90,-0.93,-0.23,0.4252,1.3157,idle
17561,0.1083,0.0311,0.4087,-1.22,-2.17,-0.02,0.4239,2.4884,idle
17581,0.1204,0.0292,0.4032,-1.02,-1.25,-0.55,0.4218,1.7075,idle
17601,0.1161,0.0330,0.4073,-0.92,1.34,-0.89,0.4248,1.8516,idle
17621,0.0970,0.0331,0.4146,-0.84,0.84,-0.73,0.4270,1.3954,idle
17641,0.0983,0.0336,0.4142,-0.53,-1.48,0.05,0.4270,1.5750,idle
17661,0.1066,0.0300,0.4102,-0.23,-1.77,0.02,0.4248,1.7858,idle
17681,0.1104,0.0288,0.4141,0.26,-0.58,-0.38,0.4295,0.7414,idle
17701,0.1089,0.0320,0.4115,0.70,0.18,-0.37,0.4269,0.8130,idle
17721,0.1024,0.0298,0.4214,1.11,-1.19,0.18,0.4347,1.6413,idle
17741,0.1095,0.0317,0.4207,1.45,-2.40,0.38,0.4358,2.8275,idle
17761,0.1138,0.0286,0.4153,1.25,-2.20,0.61,0.4315,2.6026,idle
17781,0.1115,0.0331,0.4133,1.48,-0.69,0.18,0.4294,1.6428,idle
17801,0.1062,0.0297,0.4159,1.24,-2.35,-0.67,0.4303,2.7401,idle
17821,0.1060,0.0325,0.4077,0.70,-5.25,-0.98,0.4225,5.3880,idle
17841,0.1146,0.0344,0.4015,0.55,-4.44,-1.33,0.4189,4.6695,idle
17861,0.1196,0.0299,0.4069,0.38,-1.85,-1.40,0.4251,2.3518,idle
17881,0.1058,0.0342,0.4020,-0.15,-0.85,-1.53,0.4171,1.7565,idle
17901,0.0997,0.0275,0.4113,-0.49,-1.76,-1.21,0.4241,2.1854,idle
17921,0.1029,0.0320,0.4076,-0.72,-3.13,-0.82,0.4216,3.3151,idle
17941,0.1057,0.0306,0.4109,-0.85,-3.22,-0.85,0.4254,3.4408,idle
17961,0.1001,0.0317,0.4121,-0.93,-2.92,-0.67,0.4253,3.1340,idle
17981,0.1021,0.0317,0.4124,-1.07,-3.39,-0.05,0.4260,3.5541,idle
18001,0.1061,0.0273,0.4092,-1.11,-4.55,0.99,0.4236,4.7881,idle
18021,0.1123,0.0295,0.4097,-0.81,-3.18,1.36,0.4258,3.5476,idle
18041,0.1082,0.0289,0.4124,-0.32,-2.12,1.07,0.4273,2.3976,idle
18061,0.1083,0.0256,0.4104,0.23,-2.44,0.53,0.4252,2.5110,idle
18081,0.1134,0.0229,0.4136,1.31,-2.37,-0.27,0.4295,2.7202,idle
18101,0.1146,0.0282,0.4130,1.92,-1.76,-1.05,0.4295,2.8094,idle
18121,0.1149,0.0286,0.4114,2.15,-1.50,-1.19,0.4281,2.8794,idle
18141,0.1108,0.0286,0.4100,2.98,-1.27,-1.44,0.4257,3.5395,idle
18161,0.1115,0.0281,0.4091,3.62,-0.37,-1.94,0.4249,4.1214,idle
18181,0.1086,0.0334,0.4113,4.09,-0.11,-2.15,0.4267,4.6246,idle
18201,0.1067,0.0338,0.4048,3.36,-1.28,-1.08,0.4200,3.7551,idle
18221,0.1125,0.0321,0.4073,2.81,-1.98,-0.92,0.4238,3.5594,idle
18241,0.1095,0.0333,0.4065,1.98,-1.83,-0.61,0.4223,2.7692,idle
18261,0.1066,0.0352,0.4088,1.59,-1.83,-0.08,0.4239,2.4256,idle
18281,0.1085,0.0319,0.4122,1.15,-1.59,0.43,0.4275,2.0037,idle
18301,0.1072,0.0315,0.4142,0.46,-1.50,0.84,0.4290,1.7758,idle
18321,0.1062,0.0249,0.4141,0.46,-1.68,1.15,0.4282,2.0836,idle
18341,0.1079,0.0286,0.4099,0.64,-2.24,1.51,0.4248,2.7807,idle
18361,0.1140,0.0273,0.4111,1.04,-2.06,0.96,0.4275,2.5002,idle
18381,0.1135,0.0332,0.4124,1.02,-1.62,0.64,0.4290,2.0190,idle
18401,0.1099,0.0294,0.4102,1.07,-2.15,0.44,0.4256,2.4438,idle
18421,0.1127,0.0266,0.4088,1.44,-2.27,0.32,0.4249,2.7087,idle
18441,0.1117,0.0251,0.4120,1.36,-2.15,-0.15,0.4276,2.5502,idle
18461,0.1104,0.0281,0.4161,1.51,-2.43,-0.40,0.4314,2.8870,idle
18481,0.1099,0.0264,0.4108,1.86,-2.50,-0.75,0.4260,3.2090,idle
18501,0.1096,0.0305,0.4121,1.88,-1.63,-1.36,0.4275,2.8357,idle
18521,0.1077,0.0298,0.4082,1.80,-1.71,-1.45,0.4232,2.8763,idle
18541,0.1041,0.0355,0.4028,1.28,-1.36,-1.07,0.4176,2.1525,idle
18561,0.1061,0.0336,0.4064,0.37,-2.00,-0.55,0.4213,2.1063,idle
18581,0.1102,0.0294,0.4066,0.38,-1.94,0.08,0.4223,1.9776,idle
18601,0.1091,0.0323,0.4088,-0.02,-2.00,-0.03,0.4244,2.0003,idle
18621,0.1023,0.0347,0.4072,0.18,-2.37,0.05,0.4213,2.3739,idle
18641,0.1088,0.0314,0.4108,0.02,-2.76,-0.12,0.4261,2.7661,idle
18661,0.1143,0.0278,0.4142,0.85,-2.40,-0.56,0.4306,2.6068,idle
18681,0.1156,0.0322,0.4103,1.37,-1.40,-0.90,0.4275,2.1615,idle
18701,0.1078,0.0358,0.4106,1.24,-0.50,-1.02,0.4261,1.6821,idle
18721,0.1101,0.0323,0.4088,1.30,-1.02,-0.82,0.4246,1.8466,idle
18741,0.1096,0.0341,0.4084,1.37,-1.39,-1.21,0.4243,2.2963,idle
18761,0.1062,0.0336,0.4094,1.10,-2.29,-0.82,0.4243,2.6707,idle
18781,0.1141,0.0344,0.4069,0.75,-2.06,-0.34,0.4240,2.2182,idle
18801,0.1067,0.0321,0.4091,0.55,-1.13,-0.32,0.4240,1.2966,idle
18821,0.1057,0.0341,0.4104,0.40,-2.11,-0.37,0.4252,2.1750,idle
18841,0.1084,0.0364,0.4064,0.37,-2.84,-0.55,0.4222,2.9155,idle
18861,0.1097,0.0343,0.4132,0.35,-2.52,-0.44,0.4289,2.5817,idle
18881,0.1145,0.0308,0.4115,0.78,-1.25,-0.58,0.4282,1.5843,idle
18901,0.1067,0.0316,0.4111,0.87,-1.10,-0.96,0.4259,1.7002,idle
18921,0.1039,0.0323,0.4094,0.98,-2.44,-0.95,0.4236,2.7960,idle
18941,0.1118,0.0300,0.4115,1.36,-2.17,-0.75,0.4275,2.6657,idle
18961,0.1127,0.0320,0.4054,1.42,-0.93,-0.66,0.4220,1.8205,idle
18981,0.1044,0.0381,0.4081,1.04,-1.10,-0.44,0.4229,1.5755,idle
19001,0.1099,0.0349,0.4004,0.78,-1.83,-0.72,0.4167,2.1160,idle
19021,0.1082,0.0332,0.4050,0.47,-1.63,-0.76,0.4205,1.8642,idle
19041,0.1046,0.0294,0.4091,0.67,-0.98,-0.11,0.4232,1.1905,idle
19061,0.1050,0.0304,0.4103,0.43,-1.10,0.00,0.4246,1.1794,idle
19081,0.1086,0.0303,0.4141,0.60,-1.68,-0.29,0.4291,1.8053,idle
19101,0.1123,0.0312,0.4146,0.55,-0.84,-0.32,0.4306,1.0535,idle
19121,0.1066,0.0308,0.4138,0.81,-0.85,-0.31,0.4284,1.2161,idle
19141,0.1038,0.0282,0.4169,1.05,-1.74,0.02,0.4305,2.0345,idle
19161,0.1141,0.0319,0.4119,1.21,-2.18,-0.06,0.4286,2.4950,idle
19181,0.1116,0.0264,0.4138,1.37,-1.71,-0.82,0.4294,2.3434,idle
19201,0.1134,0.0311,0.4120,1.92,-2.08,-1.24,0.4284,3.0888,idle
19221,0.1071,0.0303,0.4099,1.98,-1.60,-2.03,0.4247,3.2607,idle
19241,0.1050,0.0349,0.4108,1.56,-3.01,-1.60,0.4254,3.7471,idle
19261,0.1052,0.0298,0.4097,1.34,-3.11,-1.30,0.4240,3.6317,idle
19281,0.1078,0.0295,0.4087,0.93,-1.77,-1.24,0.4237,2.3522,idle
19301,0.1062,0.0311,0.4054,0.76,-1.91,-0.95,0.4202,2.2629,idle
19321,0.1051,0.0339,0.4093,0.58,-1.98,-1.18,0.4239,2.3786,idle
19341,0.1063,0.0345,0.4124,0.67,-2.52,-1.13,0.4272,2.8414,idle
19361,0.1058,0.0337,0.4113,0.61,-2.95,-1.10,0.4260,3.2037,idle
19381,0.1091,0.0342,0.4099,1.02,-2.69,-0.47,0.4256,2.9138,idle
19401,0.1077,0.0358,0.4077,1.15,-1.13,-0.41,0.4232,1.6605,idle
19421,0.1049,0.0320,0.4142,1.18,-1.04,-0.37,0.4284,1.6106,idle
19441,0.1071,0.0306,0.4141,1.47,-1.88,-0.43,0.4288,2.4202,idle
19461,0.1053,0.0295,0.4061,1.50,-2.09,-0.92,0.4206,2.7299,idle
19481,0.1084,0.0330,0.4036,1.13,-1.94,-0.40,0.4192,2.2789,idle
19501,0.1133,0.0348,0.4025,0.60,-1.33,-0.21,0.4195,1.4712,idle
19521,0.1094,0.0295,0.4088,0.82,-0.84,-0.46,0.4242,1.2628,idle
19541,0.1061,0.0330,0.4083,0.89,-1.28,-0.63,0.4232,1.6795,idle
19561,0.1079,0.0387,0.4036,0.31,-1.57,-0.38,0.4195,1.6467,idle
19581,0.1089,0.0369,0.4097,0.47,-2.06,-0.44,0.4255,2.1606,idle
19601,0.1124,0.0370,0.4081,-0.21,-0.89,-0.46,0.4249,1.0196,idle
19621,0.1082,0.0388,0.4083,-0.08,-0.64,-0.60,0.4242,0.8784,idle
19641,0.1052,0.0341,0.4080,-0.23,-0.72,-0.40,0.4227,0.8514,idle
19661,0.1090,0.0294,0.4097,0.40,-1.13,-0.72,0.4249,1.3960,idle
19681,0.1097,0.0334,0.4065,0.92,-0.53,-0.31,0.4224,1.1036,idle
19701,0.1044,0.0316,0.4121,0.78,-0.66,-0.09,0.4263,1.0226,idle
19721,0.1063,0.0310,0.4115,1.16,-0.90,-0.03,0.4261,1.4692,idle
19741,0.1100,0.0297,0.4095,1.53,-0.66,-0.58,0.4251,1.7602,idle
19761,0.1046,0.0308,0.4077,1.86,-0.52,-0.95,0.4220,2.1528,idle
19781,0.1064,0.0352,0.4099,1.62,-0.66,-0.56,0.4250,1.8355,idle
19801,0.1077,0.0353,0.4084,0.93,-0.60,-0.60,0.4239,1.2555,idle
19821,0.1075,0.0322,0.4108,0.67,-0.18,-0.05,0.4258,0.6978,idle
19841,0.1036,0.0336,0.4105,0.31,-0.78,-0.35,0.4247,0.9071,idle
19861,0.1016,0.0315,0.4144,0.23,-1.63,-0.15,0.4279,1.6566,idle
19881,0.1058,0.0305,0.4125,0.20,-2.05,-0.11,0.4269,2.0582,idle
19901,0.1085,0.0300,0.4158,0.32,-2.38,-0.50,0.4307,2.4554,idle
19921,0.1040,0.0328,0.4188,0.84,-2.14,-0.55,0.4328,2.3613,idle
19941,0.1130,0.0272,0.4127,1.45,-2.05,-0.82,0.4288,2.6398,idle
19961,0.1095,0.0283,0.4093,1.68,-0.79,-1.91,0.4246,2.6632,idle
19981,0.1038,0.0322,0.4130,2.23,-0.78,-2.14,0.4270,3.1848,idle
20001,0.1031,0.0342,0.4086,1.77,-1.95,-1.86,0.4228,3.2287,idle
20021,0.1041,0.0365,0.4138,1.47,-2.49,-2.09,0.4283,3.5659,idle
20041,0.1005,0.0338,0.4072,1.31,-2.84,-1.76,0.4208,3.5875,idle
20061,0.1045,0.0338,0.4072,1.65,-2.87,-1.48,0.4218,3.6263,idle
20081,0.1064,0.0372,0.4088,1.11,-1.74,-1.54,0.4241,2.5786,idle
20101,0.1038,0.0348,0.4075,0.67,-0.69,-1.97,0.4219,2.1914,idle
20121,0.0967,0.0343,0.4158,0.82,-2.38,-1.85,0.4282,3.1249,idle
20141,0.0992,0.0344,0.4071,0.64,-3.59,-0.49,0.4204,3.6772,idle
20161,0.1084,0.0342,0.4130,0.15,-2.23,0.52,0.4283,2.2937,idle
20181,0.1085,0.0347,0.4041,0.20,-0.69,0.70,0.4198,1.0023,idle
20201,0.1016,0.0358,0.4149,0.34,-0.90,0.44,0.4287,1.0584,idle
20221,0.1028,0.0398,0.4098,0.55,-2.75,0.41,0.4244,2.8327,idle
20241,0.1195,0.0405,0.4066,0.44,-2.47,0.11,0.4257,2.5149,idle
20261,0.1150,0.0349,0.4113,0.15,-1.21,-0.43,0.4285,1.2887,idle
20281,0.1107,0.0347,0.4099,0.47,-0.87,-0.53,0.4260,1.1255,idle
20301,0.1078,0.0369,0.4064,0.67,-0.55,-0.79,0.4220,1.1763,idle
20321,0.1011,0.0325,0.4150,0.85,-0.90,-0.84,0.4284,1.4991,idle
20341,0.1025,0.0325,0.4137,0.99,-1.86,-0.26,0.4274,2.1264,idle
20361,0.1036,0.0336,0.4144,1.40,-1.74,-0.75,0.4285,2.3583,idle
20381,0.0959,0.0322,0.4191,1.94,-2.15,-0.76,0.4311,2.9960,idle
20401,0.1017,0.0326,0.4127,2.14,-2.46,-0.24,0.4263,3.2665,idle
20421,0.1024,0.0312,0.4049,1.76,-1.50,0.85,0.4188,2.4601,idle
20441,0.1014,0.0314,0.4097,1.76,-1.73,1.79,0.4232,3.0413,idle
20461,0.1071,0.0349,0.4078,1.31,-2.29,1.53,0.4231,3.0495,idle
20481,0.1067,0.0352,0.4001,0.67,-2.18,0.64,0.4156,2.3725,idle
20501,0.1079,0.0331,0.4078,0.87,-1.98,-0.58,0.4232,2.2434,idle
20521,0.1073,0.0372,0.4045,0.41,-1.82,-1.28,0.4202,2.2617,idle
20541,0.1006,0.0336,0.4110,0.37,-1.76,-0.89,0.4245,2.0002,idle
20561,0.1045,0.0347,0.4088,-0.21,-1.86,-0.03,0.4234,1.8751,idle
20581,0.1055,0.0330,0.4137,-0.09,-1.45,-0.06,0.4282,1.4546,idle
20601,0.1021,0.0330,0.4144,0.37,-2.14,-0.76,0.4281,2.2990,idle
20621,0.1064,0.0358,0.4067,1.28,-2.82,-1.36,0.4220,3.3865,idle
20641,0.1078,0.0372,0.4122,1.83,-2.34,-1.62,0.4277,3.3811,idle
20661,0.1047,0.0403,0.4104,1.62,-2.23,-1.34,0.4255,3.0647,forward
20681,0.1024,0.0378,0.4103,1.18,-1.37,-0.29,0.4246,1.8314,forward
20701,0.0972,0.0382,0.4120,0.53,-1.13,0.12,0.4250,1.2557,forward
20721,0.0995,0.0323,0.4072,0.87,-2.15,-0.06,0.4204,2.3227,forward
20741,0.1031,0.0338,0.4062,1.30,-2.78,-0.56,0.4205,3.1183,forward
20761,0.1046,0.0372,0.4091,0.95,-2.55,-0.49,0.4239,2.7632,forward
20781,0.1095,0.0387,0.4033,0.76,-2.05,0.08,0.4197,2.1849,forward
20801,0.1107,0.0317,0.4043,0.21,-0.66,0.09,0.4204,0.6965,forward
20821,0.1040,0.0365,0.4080,0.70,-0.70,-0.60,0.4226,1.1580,forward
20841,0.1063,0.0406,0.4049,0.46,-2.40,-0.56,0.4206,2.5048,forward
20861,0.1141,0.0419,0.4059,-0.40,-1.50,-0.40,0.4237,1.5980,forward
20881,0.1084,0.0378,0.4062,-1.31,0.06,-0.66,0.4222,1.4692,forward
20901,0.0985,0.0352,0.4091,-1.05,-0.69,-0.60,0.4222,1.3915,forward
20921,0.1097,0.0339,0.4146,-0.96,-2.20,-0.73,0.4302,2.5091,forward
20941,0.1128,0.0353,0.4180,-0.32,-1.74,-0.75,0.4344,1.9214,forward
20961,0.1147,0.0354,0.4248,1.11,-0.14,-0.90,0.4415,1.4396,forward
20981,0.1082,0.0325,0.4384,2.63,-1.21,-1.57,0.4527,3.2899,forward
21001,0.1033,0.0278,0.4613,6.40,-4.23,-1.50,0.4735,7.8131,forward
21021,0.1229,0.0320,0.4678,10.55,-7.34,-0.73,0.4847,12.8747,forward
21041,0.1515,0.0277,0.4923,15.66,-4.02,2.72,0.5158,16.3973,forward
21061,0.1635,0.0137,0.5287,24.98,1.77,-3.54,0.5535,25.2891,forward
21081,0.1786,0.0135,0.5487,38.44,7.57,-6.82,0.5772,39.7714,forward
21101,0.1630,0.0372,0.5341,48.27,18.34,-9.77,0.5596,52.5560,forward
21121,0.1127,0.0403,0.5411,56.75,18.85,-9.18,0.5542,60.4983,forward
21141,0.0829,0.0259,0.5730,70.58,4.87,-9.88,0.5795,71.4342,forward
21161,0.1024,0.0341,0.5558,85.89,-7.73,-13.66,0.5662,87.3156,forward
21181,0.1263,0.0524,0.5400,98.49,-7.65,-16.67,0.5571,100.1821,forward
21201,0.0962,0.0664,0.5222,108.15,-8.34,-16.43,0.5351,109.7103,forward
21221,0.0508,0.0615,0.5297,119.59,-20.03,-15.92,0.5356,122.2948,forward
21241,0.0409,0.0731,0.5007,132.56,-41.05,-17.53,0.5077,139.8786,forward
21261,0.0626,0.0876,0.4725,145.71,-55.62,-19.92,0.4847,157.2315,forward
21281,0.1012,0.1097,0.4342,157.21,-61.27,-23.47,0.4591,170.3469,forward
21301,0.1019,0.1265,0.3829,166.52,-57.82,-26.99,0.4160,178.3255,forward
21321,0.0767,0.1476,0.3315,171.85,-57.95,-27.11,0.3709,183.3723,forward
21341,0.0565,0.1654,0.2878,173.98,-63.68,-27.50,0.3368,187.3013,forward
21361,0.0431,0.1820,0.2516,174.67,-74.96,-28.05,0.3135,192.1355,forward
21381,0.0759,0.2113,0.1931,175.95,-80.78,-29.83,0.2962,195.8954,forward
21401,0.1165,0.2521,0.1361,172.40,-75.39,-33.74,0.3092,191.1614,forward
21421,0.1162,0.2855,0.0925,165.86,-59.16,-30.73,0.3219,178.7592,forward
21441,0.1206,0.3146,0.0342,154.85,-42.87,-23.95,0.3386,162.4553,forward
21461,0.1143,0.3339,0.0525,145.15,-33.51,-22.76,0.3568,150.6926,forward
21481,0.0845,0.3604,0.0205,133.88,-32.81,-22.21,0.3707,139.6180,forward
21501,0.0771,0.3671,0.0063,125.62,-38.20,-19.05,0.3751,132.6730,forward
21521,0.1073,0.3842,-0.0121,116.61,-39.28,-19.24,0.3990,124.5440,forward
21541,0.1191,0.4034,-0.0238,106.20,-36.78,-21.53,0.4213,114.4298,forward
21561,0.1296,0.4276,-0.0588,95.05,-30.50,-19.97,0.4507,101.8058,forward
21581,0.1680,0.4437,-0.0824,81.39,-8.70,-17.94,0.4816,83.7959,forward
21601,0.1647,0.4641,-0.0896,65.65,20.27,-13.27,0.5005,69.9776,forward
21621,0.1191,0.4817,-0.0610,50.03,32.93,-6.49,0.4999,60.2464,forward
21641,0.0968,0.4807,-0.0619,35.59,29.07,1.13,0.4943,45.9647,forward
21661,0.0845,0.4736,-0.0443,22.40,15.34,2.92,0.4831,27.3048,forward
21681,0.0784,0.4762,-0.0431,11.95,-4.75,3.73,0.4845,13.3912,forward
21701,0.1068,0.4828,-0.0339,3.02,-18.69,4.17,0.4956,19.3834,forward
21721,0.1376,0.4774,-0.0282,-2.70,-29.74,2.18,0.4976,29.9427,forward
21741,0.1688,0.4873,-0.0122,-6.17,-29.25,1.15,0.5159,29.9170,forward
21761,0.1693,0.4882,-0.0034,-9.15,-25.11,2.44,0.5167,26.8391,forward
21781,0.1610,0.4912,0.0054,-11.60,-23.28,3.69,0.5170,26.2746,forward
21801,0.1575,0.4835,0.0183,-12.58,-24.96,2.67,0.5088,28.0801,forward
21821,0.1714,0.4907,0.0205,-11.66,-25.53,1.27,0.5202,28.0940,forward
21841,0.1941,0.4866,0.0197,-10.69,-19.48,0.63,0.5242,22.2286,forward
21861,0.1952,0.4762,0.0308,-8.92,-11.21,1.86,0.5156,14.4410,forward
21881,0.1852,0.4808,0.0256,-7.73,-7.71,4.14,0.5159,11.6722,forward
21901,0.1870,0.4906,-0.0073,-7.18,-0.60,2.60,0.5251,7.6537,forward
21921,0.1980,0.5040,-0.0443,-9.92,15.89,3.97,0.5433,19.1527,forward
21941,0.1674,0.4982,-0.0355,-16.40,31.37,5.18,0.5267,35.7768,forward
21961,0.1313,0.4946,-0.0330,-23.89,33.40,8.15,0.5128,41.8714,forward
21981,0.1379,0.4924,-0.0596,-32.23,32.43,11.74,0.5148,47.2026,forward
22001,0.1541,0.4985,-0.0857,-45.19,44.20,14.46,0.5288,64.8441,forward
22021,0.1058,0.4878,-0.0367,-60.02,45.98,18.14,0.5005,77.7521,forward
22041,0.0929,0.4580,-0.0057,-70.46,28.41,22.87,0.4674,79.3387,forward
22061,0.1256,0.4459,-0.0223,-81.97,16.84,23.77,0.4638,86.9921,forward
22081,0.1458,0.4397,-0.0229,-96.78,20.32,24.29,0.4638,101.8285,forward
22101,0.1168,0.4174,0.0364,-107.92,14.70,26.06,0.4349,111.9949,forward
22121,0.1266,0.3846,0.0575,-114.89,-1.68,27.18,0.4090,118.0678,forward
22141,0.1849,0.3781,0.0211,-124.82,1.94,27.88,0.4214,127.9143,forward
22161,0.1917,0.3672,0.0356,-138.09,25.19,30.84,0.4157,143.7183,forward
22181,0.1653,0.3379,0.0874,-148.29,41.24,35.80,0.3862,158.0258,forward
22201,0.1722,0.3127,0.0865,-157.44,50.64,38.37,0.3674,169.7714,forward
22221,0.1707,0.2911,0.0781,-168.56,61.33,38.14,0.3464,183.3841,forward
22241,0.1487,0.2572,0.1252,-181.37,77.56,41.27,0.3224,201.5308,forward
22261,0.0984,0.2025,0.2010,-187.48,71.15,43.02,0.3019,205.0894,forward
22281,0.0820,0.1561,0.2681,-189.71,46.35,39.51,0.3209,199.2472,forward
22301,0.0892,0.1187,0.2703,-190.50,15.95,31.83,0.3084,193.8028,forward
22321,0.1387,0.0996,0.2559,-190.67,4.96,28.05,0.3076,192.7872,forward
22341,0.1993,0.0709,0.2859,-190.23,17.48,28.31,0.3557,193.1161,forward
22361,0.1884,0.0166,0.3176,-189.24,37.71,27.31,0.3696,194.8809,forward
22381,0.1506,-0.0192,0.3588,-187.11,62.11,27.66,0.3896,199.0839,forward
22401,0.1041,-0.0675,0.4960,-176.14,58.35,25.71,0.5113,187.3239,forward
22421,0.0847,-0.0847,0.4786,-162.52,32.37,19.11,0.4934,166.8095,forward
22441,0.1180,-0.0737,0.3901,-155.50,26.17,11.60,0.4142,158.1090,forward
22461,0.1193,-0.0895,0.4015,-151.62,42.81,9.08,0.4283,157.8076,forward
22481,0.0875,-0.1560,0.5288,-140.02,40.90,8.90,0.5582,146.1382,forward
22501,0.0560,-0.2080,0.5815,-121.45,20.72,5.16,0.6202,123.3128,forward
22521,0.0559,-0.1943,0.5392,-103.45,-1.07,-4.85,0.5759,103.5697,forward
22541,0.1136,-0.1823,0.5278,-86.84,-4.21,-9.53,0.5699,87.4623,forward
22561,0.1562,-0.1959,0.5667,-70.72,4.09,-9.86,0.6196,71.5191,forward
22581,0.1180,-0.2155,0.5721,-55.11,4.27,-10.64,0.6227,56.2949,forward
22601,0.0878,-0.1941,0.4961,-44.20,-3.30,-13.56,0.5399,46.3485,forward
22621,0.1221,-0.1816,0.4419,-35.39,3.60,-12.60,0.4931,37.7363,forward
22641,0.1334,-0.1862,0.4746,-24.12,25.18,-8.92,0.5270,35.9886,forward
22661,0.0828,-0.1804,0.5146,-13.60,32.41,-8.29,0.5516,36.1154,forward
22681,0.0410,-0.1761,0.5436,-3.50,22.02,-7.60,0.5729,23.5521,forward
22701,0.0522,-0.1609,0.5059,6.26,7.95,-7.97,0.5334,12.8827,forward
22721,0.0697,-0.1393,0.4550,11.91,1.73,-7.63,0.4809,14.2498,forward
22741,0.0850,-0.1271,0.4248,13.33,-0.52,-6.47,0.4515,14.8262,forward
22761,0.0984,-0.1293,0.4296,16.46,-1.02,-5.94,0.4593,17.5267,forward
22781,0.0929,-0.1237,0.4382,21.07,-0.17,-6.37,0.4647,22.0102,forward
22801,0.0831,-0.1106,0.4362,23.54,-2.15,-5.24,0.4576,24.2132,forward
22821,0.0754,-0.1040,0.4270,24.06,-7.10,-4.60,0.4459,25.5040,forward
22841,0.0823,-0.1030,0.4083,22.89,-12.03,-6.08,0.4291,26.5594,forward
22861,0.0924,-0.1101,0.3956,23.25,-14.61,-6.60,0.4209,28.2422,forward
22881,0.1061,-0.1024,0.4043,25.13,-14.08,-6.32,0.4303,29.4890,forward
22901,0.1096,-0.0952,0.4076,25.47,-12.24,-5.07,0.4327,28.7074,forward
22921,0.1134,-0.0956,0.4081,25.56,-8.73,-4.73,0.4342,27.4196,forward
22941,0.1147,-0.0961,0.4133,26.00,-4.27,-4.93,0.4396,26.8066,forward
22961,0.1080,-0.0839,0.4062,25.45,-1.59,-5.36,0.4287,26.0569,forward
22981,0.1010,-0.0717,0.3967,23.79,-0.99,-4.53,0.4156,24.2349,forward
23001,0.0941,-0.0718,0.3925,21.28,-3.30,-3.63,0.4099,21.8408,forward
23021,0.1013,-0.0748,0.3896,19.62,-5.30,-3.48,0.4095,20.6170,forward
23041,0.1006,-0.0668,0.3937,19.25,-6.24,-3.92,0.4118,20.6161,forward
23061,0.1029,-0.0636,0.4010,16.98,-8.47,-3.83,0.4189,19.3572,forward
23081,0.1075,-0.0612,0.4037,15.27,-8.95,-3.85,0.4222,18.1088,forward
23101,0.1118,-0.0619,0.3997,14.15,-7.68,-3.86,0.4196,16.5587,forward
23121,0.1090,-0.0608,0.4001,12.95,-7.39,-3.39,0.4192,15.2873,forward
23141,0.1064,-0.0582,0.4066,11.80,-8.15,-2.58,0.4243,14.5739,forward
23161,0.1221,-0.0585,0.4033,10.84,-7.15,-2.79,0.4254,13.2799,forward
23181,0.1316,-0.0634,0.3997,10.35,-2.70,-2.78,0.4255,11.0530,forward
23201,0.1218,-0.0579,0.4138,9.95,1.13,-2.58,0.4352,10.3450,left
23221,0.1066,-0.0513,0.4148,9.22,-0.12,-2.58,0.4313,9.5763,left
23241,0.1057,-0.0541,0.4144,8.78,-2.55,-2.50,0.4311,9.4781,left
23261,0.1157,-0.0580,0.4071,9.04,-3.73,-2.81,0.4272,10.1714,left
23281,0.1198,-0.0518,0.4100,9.42,-2.78,-3.69,0.4303,10.4931,left
23301,0.1094,-0.0476,0.4076,8.81,-1.91,-3.71,0.4247,9.7471,left
23321,0.1067,-0.0460,0.4069,8.05,-2.53,-3.66,0.4231,9.1969,left
23341,0.1122,-0.0529,0.4135,7.88,-3.45,-2.99,0.4316,9.1060,left
23361,0.1133,-0.0514,0.4069,8.23,-2.85,-3.28,0.4255,9.3082,left
23381,0.1116,-0.0450,0.4053,8.29,-2.00,-3.30,0.4228,9.1433,left
23401,0.1085,-0.0426,0.4008,8.26,-0.75,-2.79,0.4174,8.7513,left
23421,0.1115,-0.0392,0.4050,7.60,-0.53,-2.47,0.4219,8.0131,left
23441,0.1078,-0.0399,0.4137,7.66,-1.19,-3.18,0.4294,8.3810,left
23461,0.1118,-0.0405,0.4121,8.00,-3.13,-3.91,0.4289,9.4377,left
23481,0.1178,-0.0363,0.4058,8.18,-2.03,-3.77,0.4241,9.2362,left
23501,0.1187,-0.0350,0.4008,7.48,-0.17,-3.54,0.4194,8.2788,left
23521,0.1160,-0.0383,0.4045,7.27,0.95,-3.63,0.4226,8.1799,left
23541,0.1115,-0.0323,0.4036,6.55,1.57,-4.00,0.4199,7.8339,left
23561,0.1060,-0.0270,0.4089,5.25,0.96,-3.24,0.4233,6.2437,left
23581,0.1058,-0.0333,0.4095,4.72,-1.22,-2.78,0.4243,5.6096,left
23601,0.1150,-0.0308,0.4159,4.84,-2.34,-3.16,0.4326,6.2343,left
23621,0.1135,-0.0236,0.4103,3.86,-1.28,-3.33,0.4263,5.2575,left
23641,0.1149,-0.0297,0.4108,3.15,-0.52,-3.10,0.4276,4.4459,left
23661,0.1093,-0.0306,0.4147,3.04,0.52,-2.66,0.4299,4.0690,left
23681,0.1046,-0.0303,0.4229,3.28,-1.21,-2.82,0.4367,4.4952,left
23701,0.1116,-0.0300,0.4209,4.11,-2.53,-2.49,0.4365,5.4298,left
23721,0.1136,-0.0314,0.4141,4.58,-1.65,-2.63,0.4305,5.5310,left
23741,0.1115,-0.0262,0.4100,4.49,-0.02,-2.60,0.4257,5.1849,left
23761,0.1011,-0.0226,0.4142,4.26,-0.17,-3.05,0.4269,5.2436,left
23781,0.0999,-0.0243,0.4169,4.66,-2.81,-2.52,0.4294,5.9933,left
23801,0.1100,-0.0259,0.4131,4.89,-2.82,-2.47,0.4283,6.1614,left
23821,0.1073,-0.0217,0.4033,4.58,-1.15,-2.20,0.4179,5.2079,left
23841,0.1075,-0.0233,0.4026,3.25,1.02,-0.79,0.4174,3.5002,left
23861,0.1044,-0.0232,0.4137,4.35,2.46,-0.26,0.4273,5.0042,left
23881,0.0909,-0.0186,0.4187,4.44,0.76,-0.32,0.4289,4.5192,left
23901,0.0924,-0.0157,0.4120,4.29,-1.57,0.00,0.4225,4.5692,left
23921,0.1012,-0.0199,0.4098,4.06,-0.81,0.34,0.4226,4.1545,left
23941,0.1069,-0.0190,0.4069,4.50,0.27,0.29,0.4211,4.5215,left
23961,0.1052,-0.0150,0.4058,4.89,1.73,1.01,0.4195,5.2782,left
23981,0.1058,-0.0114,0.4048,4.61,6.55,2.66,0.4185,8.4388,left
24001,0.1035,-0.0090,0.4022,3.65,14.87,4.02,0.4154,15.8291,left
24021,0.0801,-0.0039,0.4143,3.53,22.95,5.54,0.4220,23.8683,left
24041,0.0541,-0.0034,0.4261,3.51,19.91,8.03,0.4296,21.7523,left
24061,0.0801,-0.0067,0.4269,5.39,17.51,12.44,0.4344,22.1476,left
24081,0.0847,-0.0020,0.4376,8.06,28.66,13.85,0.4458,32.8317,left
24101,0.0387,0.0043,0.4319,10.03,36.32,18.03,0.4336,41.7720,left
24121,0.0145,0.0067,0.4303,11.45,37.68,25.11,0.4306,46.7075,left
24141,-0.0134,0.0011,0.4508,14.34,36.49,31.68,0.4510,50.4035,left
24161,-0.0391,0.0015,0.4468,17.19,30.93,39.10,0.4485,52.7354,left
24181,-0.0253,0.0096,0.4315,19.11,27.10,46.79,0.4324,57.3533,left
24201,-0.0190,-0.0004,0.4298,21.57,33.42,54.26,0.4302,67.2782,left
24221,-0.0770,0.0028,0.4319,21.40,34.63,63.07,0.4387,75.0651,left
24241,-0.1006,0.0006,0.4341,20.09,25.73,75.39,0.4456,82.1523,left
24261,-0.0876,0.0013,0.4136,18.17,13.11,86.87,0.4228,89.7134,left
24281,-0.0560,-0.0015,0.4130,15.98,4.56,96.64,0.4168,98.0606,left
24301,-0.0487,-0.0042,0.4103,14.35,5.42,106.31,0.4132,107.4065,left
24321,-0.0466,-0.0084,0.4274,11.42,5.11,116.27,0.4300,116.9462,left
24341,-0.0173,-0.0205,0.4312,11.19,-0.67,122.61,0.4320,123.1222,left
24361,0.0162,-0.0229,0.4219,12.17,-5.85,124.76,0.4228,125.4916,left
24381,0.0477,-0.0209,0.4087,11.89,-3.54,125.44,0.4120,126.0475,left
24401,0.0662,-0.0323,0.4142,11.50,0.26,125.83,0.4207,126.3564,left
24421,0.0637,-0.0271,0.4161,12.49,7.44,125.07,0.4219,125.9104,left
24441,0.0383,-0.0229,0.4086,10.14,6.96,124.64,0.4110,125.2464,left
24461,0.0367,-0.0333,0.4197,9.65,1.88,124.67,0.4226,125.0587,left
24481,0.0774,-0.0306,0.4076,9.48,-5.34,118.81,0.4160,119.3066,left
24501,0.0791,-0.0233,0.4041,8.79,-6.24,112.38,0.4124,112.8980,left
24521,0.0763,-0.0269,0.4174,9.30,-10.75,107.15,0.4251,108.0834,left
24541,0.0754,-0.0303,0.4172,7.53,-16.21,104.67,0.4251,106.1872,left
24561,0.0941,-0.0300,0.4155,8.61,-25.57,97.47,0.4271,101.1319,left
24581,0.0793,-0.0243,0.4076,6.02,-30.69,91.80,0.4160,96.9814,left
24601,0.0804,-0.0341,0.4333,8.85,-38.99,83.79,0.4421,92.8383,left
24621,0.1053,-0.0215,0.4121,11.22,-44.79,77.73,0.4259,90.4081,left
24641,0.1786,-0.0256,0.4106,11.47,-49.82,68.20,0.4485,85.2303,left
24661,0.2308,0.0006,0.3790,9.73,-35.16,60.79,0.4438,70.8994,left
24681,0.1885,0.0098,0.3855,5.94,-14.90,52.18,0.4292,54.5930,left
24701,0.1758,0.0033,0.3950,4.55,-14.47,41.16,0.4324,43.8674,left
24721,0.1599,-0.0042,0.4080,4.84,-21.08,33.08,0.4382,39.5285,left
24741,0.1469,0.0055,0.4065,3.44,-29.94,26.18,0.4322,39.9212,left
24761,0.1505,0.0162,0.4092,2.27,-33.57,18.17,0.4363,38.2409,left
24781,0.2073,0.0115,0.3940,3.31,-30.26,9.74,0.4454,31.9608,left
24801,0.2101,0.0138,0.3906,2.08,-15.02,2.98,0.4437,15.4552,left
24821,0.1628,0.0265,0.3821,0.40,-6.72,-3.11,0.4162,7.4151,left
24841,0.1270,0.0227,0.3898,-0.18,-10.81,-5.88,0.4106,12.3053,left
24861,0.1456,0.0243,0.3774,-0.58,-15.59,-7.40,0.4053,17.2668,left
24881,0.1835,0.0295,0.3762,-1.66,-10.89,-13.48,0.4196,17.4068,left
24901,0.1919,0.0173,0.3811,-2.99,-2.23,-21.15,0.4270,21.4717,left
24921,0.1598,0.0205,0.3788,-4.69,1.16,-25.50,0.4116,25.9494,left
24941,0.1516,0.0345,0.3695,-8.82,-5.18,-28.40,0.4009,30.1835,left
24961,0.1753,0.0295,0.3665,-14.21,-12.60,-33.18,0.4073,38.2269,left
24981,0.2208,0.0082,0.3630,-16.98,-10.40,-41.13,0.4250,45.6944,left
25001,0.2533,0.0035,0.3575,-19.48,-2.08,-52.34,0.4382,55.8826,left
25021,0.2625,-0.0031,0.3588,-22.55,7.47,-64.35,0.4445,68.5951,left
25041,0.2231,-0.0189,0.3779,-25.68,12.81,-75.92,0.4393,81.1659,left
25061,0.1759,-0.0330,0.4003,-26.40,5.19,-85.11,0.4385,89.2649,left
25081,0.1620,-0.0255,0.3918,-26.20,-6.17,-92.21,0.4248,96.0613,left
25101,0.1829,-0.0073,0.3640,-29.73,-13.27,-99.77,0.4074,104.9469,left
25121,0.2059,-0.0140,0.3475,-34.96,-9.37,-107.48,0.4042,113.4123,left
25141,0.2001,-0.0405,0.3734,-36.92,-2.35,-114.63,0.4256,120.4468,left
25161,0.1788,-0.0433,0.3813,-37.11,1.97,-119.97,0.4234,125.5947,left
25181,0.1703,-0.0378,0.3751,-38.84,4.47,-121.79,0.4137,127.9079,left
25201,0.1516,-0.0432,0.3817,-41.54,5.22,-124.96,0.4130,131.7894,left
25221,0.1302,-0.0580,0.3849,-42.60,2.23,-126.93,0.4104,133.9063,left
25241,0.1337,-0.0747,0.4255,-41.68,4.27,-128.41,0.4522,135.0746,left
25261,0.1024,-0.0861,0.4435,-38.84,12.76,-127.62,0.4632,134.0069,left
25281,0.0839,-0.0809,0.4406,-34.89,21.53,-125.11,0.4557,131.6588,left
25301,0.0532,-0.0648,0.4443,-31.30,23.71,-119.34,0.4522,125.6367,left
25321,0.0013,-0.0706,0.4629,-29.48,12.75,-110.50,0.4682,115.0771,left
25341,-0.0154,-0.0774,0.4637,-26.05,1.22,-102.37,0.4704,105.6350,left
25361,-0.0206,-0.0654,0.4768,-20.95,-10.37,-95.73,0.4817,98.5370,left
25381,0.0214,-0.0557,0.4655,-15.86,-7.62,-87.07,0.4693,88.8292,left
25401,0.0303,-0.0563,0.4619,-10.52,6.67,-78.98,0.4663,79.9534,left
25421,-0.0172,-0.0439,0.4718,-5.53,6.52,-70.98,0.4742,71.4898,left
25441,-0.0125,-0.0248,0.4414,-4.29,-9.60,-61.48,0.4423,62.3741,left
25461,0.0559,-0.0253,0.4166,-3.83,-12.09,-53.05,0.4211,54.5487,left
25481,0.0804,-0.0303,0.4163,-2.11,3.42,-47.91,0.4250,48.0765,left
25501,0.0359,-0.0236,0.4380,2.18,17.01,-41.39,0.4401,44.8007,left
25521,-0.0024,-0.0153,0.4500,5.73,13.50,-36.12,0.4502,38.9838,left
25541,0.0103,-0.0098,0.4368,7.28,1.51,-29.57,0.4370,30.4935,left
25561,0.0409,-0.0016,0.4133,6.82,-5.04,-23.56,0.4154,25.0380,left
25581,0.0787,-0.0032,0.4014,6.31,-6.41,-20.58,0.4090,22.4592,left
25601,0.0958,-0.0052,0.4128,7.01,2.85,-18.29,0.4238,19.7936,left
25621,0.0765,0.0062,0.4158,7.83,8.43,-14.79,0.4228,18.7409,left
25641,0.0607,0.0117,0.4202,6.78,4.95,-11.25,0.4247,14.0365,left
25661,0.0798,0.0084,0.4188,6.67,3.74,-8.78,0.4264,11.6434,left
25681,0.0767,0.0092,0.4196,7.30,5.42,-7.68,0.4266,11.8998,left
25701,0.0662,0.0140,0.4171,6.96,4.75,-4.93,0.4226,9.7637,left
25721,0.0765,0.0127,0.4135,5.71,1.73,-2.43,0.4207,6.4399,left
25741,0.0840,0.0057,0.4193,5.51,0.66,-0.21,0.4277,5.5545,left
25761,0.0785,0.0127,0.4149,5.01,0.84,2.20,0.4225,5.5331,left
25781,0.0775,0.0082,0.4143,3.92,0.20,3.76,0.4216,5.4351,right
25801,0.0801,0.0054,0.4119,2.99,2.03,6.37,0.4196,7.3218,right
25821,0.0714,-0.0005,0.4241,2.47,-0.46,7.68,0.4300,8.0808,right
25841,0.0813,-0.0052,0.4200,2.76,-4.76,7.79,0.4279,9.5369,right
25861,0.0940,-0.0004,0.4130,2.82,-6.00,7.97,0.4235,10.3677,right
25881,0.1034,0.0011,0.4032,1.79,-4.15,8.52,0.4162,9.6442,right
25901,0.1090,-0.0082,0.4098,1.15,-0.64,8.58,0.4241,8.6799,right
25921,0.1019,-0.0068,0.4200,1.28,-0.95,7.05,0.4323,7.2313,right
25941,0.0911,-0.0037,0.4202,1.27,-2.92,6.53,0.4299,7.2668,right
25961,0.1019,-0.0040,0.4279,1.76,-5.42,6.27,0.4398,8.4753,right
25981,0.1106,-0.0026,0.4198,2.12,-5.74,4.85,0.4341,7.8120,right
26001,0.1025,-0.0070,0.4215,2.50,-5.79,4.50,0.4339,7.7482,right
26021,0.0984,-0.0057,0.4149,2.38,-6.81,4.64,0.4265,8.5778,right
26041,0.1005,-0.0024,0.4071,1.74,-4.61,4.40,0.4193,6.6046,right
26061,0.0894,-0.0023,0.4015,1.08,-4.92,4.26,0.4113,6.5944,right
26081,0.0997,-0.0065,0.4099,0.47,-4.70,4.53,0.4219,6.5495,right
26101,0.1017,-0.0042,0.4071,0.85,-3.30,4.17,0.4196,5.3831,right
26121,0.0944,0.0006,0.4100,0.50,-4.41,4.47,0.4208,6.3033,right
26141,0.0991,0.0016,0.4033,-0.15,-4.47,4.09,0.4153,6.0642,right
26161,0.0988,-0.0039,0.4082,0.03,-4.21,3.60,0.4200,5.5442,right
26181,0.0935,-0.0015,0.4086,-0.49,-5.05,4.05,0.4191,6.4919,right
26201,0.0966,0.0045,0.3975,-1.68,-6.29,5.54,0.4090,8.5498,right
26221,0.1097,0.0005,0.3943,-3.10,-5.73,5.47,0.4093,8.5004,right
26241,0.1100,-0.0035,0.4019,-2.95,-2.96,5.02,0.4166,6.5333,right
26261,0.0994,0.0013,0.4056,-3.42,-3.36,4.93,0.4176,6.8771,right
26281,0.1055,-0.0044,0.4052,-3.73,-6.11,3.79,0.4187,8.0936,right
26301,0.1158,-0.0146,0.4119,-3.80,-9.33,1.33,0.4281,10.1603,right
26321,0.1381,-0.0239,0.4230,-3.07,-11.30,-1.53,0.4456,11.8062,right
26341,0.1649,-0.0311,0.4287,-0.93,-11.79,-7.24,0.4604,13.8619,right
26361,0.2019,-0.0183,0.4103,1.11,-7.63,-15.92,0.4576,17.6940,right
26381,0.2013,-0.0061,0.3942,0.14,1.01,-22.79,0.4426,22.8166,right
26401,0.2087,-0.0132,0.3970,-1.92,5.13,-29.83,0.4487,30.3310,right
26421,0.2161,-0.0151,0.3951,-3.98,5.86,-38.27,0.4506,38.9257,right
26441,0.2102,-0.0081,0.3851,-6.09,3.50,-47.48,0.4388,47.9976,right
26461,0.2112,-0.0115,0.3938,-9.11,-2.12,-57.80,0.4470,58.5542,right
26481,0.2258,-0.0233,0.3927,-11.19,-7.97,-71.01,0.4536,72.3245,right
26501,0.2400,-0.0259,0.3740,-13.11,-4.89,-84.69,0.4452,85.8356,right
26521,0.2485,-0.0326,0.3600,-15.27,8.15,-94.58,0.4387,96.1507,right
26541,0.2388,-0.0317,0.3597,-17.27,27.76,-102.32,0.4329,107.4153,right
26561,0.2031,-0.0309,0.3684,-20.20,41.47,-108.47,0.4218,117.8721,right
26581,0.1210,-0.0590,0.4052,-21.42,46.66,-114.17,0.4269,125.1797,right
26601,0.0359,-0.0725,0.4476,-19.86,33.98,-117.13,0.4549,123.5673,right
26621,0.0306,-0.0670,0.4292,-17.28,13.59,-117.50,0.4355,119.5352,right
26641,0.0703,-0.0472,0.3955,-17.54,11.69,-115.69,0.4045,117.5999,right
26661,0.0441,-0.0502,0.3997,-20.87,14.72,-114.06,0.4052,116.8850,right
26681,-0.0349,-0.0769,0.4341,-20.61,12.00,-108.89,0.4422,111.4668,right
26701,-0.0511,-0.0959,0.4604,-17.02,-6.20,-103.33,0.4731,104.9044,right
26721,-0.0035,-0.0922,0.4425,-14.76,-13.40,-97.69,0.4520,99.7090,right
26741,0.0382,-0.0908,0.4193,-12.81,4.17,-88.69,0.4307,89.7041,right
26761,0.0179,-0.0937,0.4242,-9.27,28.89,-77.60,0.4348,83.3216,right
26781,-0.0723,-0.0797,0.4510,-5.91,34.73,-64.90,0.4637,73.8471,right
26801,-0.0883,-0.0605,0.4489,-3.18,17.57,-54.26,0.4614,57.1225,right
26821,-0.0504,-0.0430,0.4315,-2.05,4.76,-47.50,0.4366,47.7783,right
26841,0.0237,-0.0294,0.4073,-1.62,-1.48,-45.77,0.4091,45.8235,right
26861,0.0774,-0.0430,0.3954,-0.08,6.72,-47.94,0.4052,48.4074,right
26881,0.0433,-0.0344,0.3931,-0.53,16.46,-47.19,0.3969,49.9813,right
26901,0.0037,-0.0364,0.4059,-0.79,12.96,-43.47,0.4075,45.3641,right
26921,-0.0303,-0.0297,0.4094,-1.16,22.03,-33.25,0.4116,39.9046,right
26941,-0.1613,-0.0145,0.4163,-3.39,31.85,-16.85,0.4466,36.1916,right
26961,-0.2394,0.0023,0.4364,-5.94,6.76,0.75,0.4977,9.0318,right
26981,-0.1201,-0.0164,0.4301,-6.50,-28.50,10.09,0.4468,30.9291,right
27001,0.0199,-0.0243,0.4124,-4.08,-31.74,12.69,0.4135,34.4243,right
27021,0.0563,-0.0146,0.4091,-4.02,-17.92,14.55,0.4132,23.4323,right
27041,0.0714,-0.0184,0.4180,-3.86,-6.61,16.50,0.4244,18.1933,right
27061,0.0748,-0.0278,0.4207,-2.32,3.62,15.74,0.4282,16.3168,right
27081,0.0492,-0.0353,0.4312,-0.98,7.68,15.08,0.4354,16.9545,right
27101,0.0146,-0.0450,0.4336,-0.21,8.41,16.09,0.4362,18.1590,right
27121,-0.0044,-0.0525,0.4388,2.32,3.95,17.76,0.4420,18.3381,right
27141,-0.0172,-0.0510,0.4373,4.40,-3.57,21.65,0.4406,22.3779,right
27161,0.0094,-0.0437,0.4261,5.25,-4.14,27.56,0.4285,28.3567,right
27181,0.0100,-0.0441,0.4196,4.79,5.71,33.31,0.4220,34.1371,right
27201,-0.0134,-0.0450,0.4248,4.18,14.46,40.67,0.4274,43.3673,right
27221,-0.0360,-0.0499,0.4386,4.29,14.23,47.69,0.4429,49.9565,right
27241,-0.0441,-0.0494,0.4240,4.09,11.66,54.32,0.4291,55.7093,right
27261,-0.0599,-0.0482,0.4159,3.62,13.80,63.15,0.4229,64.7369,right
27281,-0.0811,-0.0516,0.4323,3.74,10.79,72.18,0.4428,73.0816,right
27301,-0.0848,-0.0577,0.4312,4.17,2.93,80.89,0.4432,81.0458,right
27321,-0.0663,-0.0718,0.4368,5.89,-3.27,88.84,0.4476,89.0949,right
27341,-0.0526,-0.0654,0.4392,9.69,-9.85,93.08,0.4472,94.1041,right
27361,-0.0352,-0.0629,0.4297,12.24,-16.34,96.34,0.4357,98.4753,right
27381,-0.0068,-0.0680,0.4338,14.96,-12.31,100.21,0.4392,102.0690,right
27401,-0.0204,-0.0735,0.4481,18.67,-11.02,104.24,0.4546,106.4754,right
27421,-0.0215,-0.0631,0.4386,21.74,-14.43,109.40,0.4436,112.4729,right
27441,0.0034,-0.0651,0.4553,24.78,-17.86,112.15,0.4600,116.2380,right
27461,0.0396,-0.0739,0.4579,30.73,-18.37,111.57,0.4655,117.1762,right
27481,0.0709,-0.0605,0.4408,36.32,-16.05,108.27,0.4506,115.3260,right
27501,0.0833,-0.0430,0.4171,38.60,-7.42,107.53,0.4275,114.4843,right
27521,0.0891,-0.0343,0.4344,40.75,-0.26,105.11,0.4448,112.7366,right
27541,0.0900,-0.0292,0.4260,41.62,-1.89,102.02,0.4364,110.1943,right
27561,0.0983,-0.0228,0.4177,41.79,-3.98,97.51,0.4297,106.1624,right
27581,0.1017,-0.0178,0.4172,41.63,-8.44,93.39,0.4298,102.5973,right
27601,0.1295,-0.0114,0.4080,41.10,-12.73,87.44,0.4282,97.4483,right
27621,0.1367,0.0027,0.3994,40.41,-14.37,79.11,0.4222,89.9925,right
27641,0.1439,0.0171,0.3903,39.18,-16.11,71.73,0.4163,83.2986,right
27661,0.1630,0.0326,0.3746,35.73,-14.40,63.80,0.4098,74.5265,right
27681,0.1621,0.0402,0.3767,32.85,-16.12,54.93,0.4121,66.0062,right
27701,0.1575,0.0468,0.3701,29.57,-13.98,46.72,0.4049,57.0319,right
27721,0.1409,0.0463,0.3748,25.50,-16.72,39.71,0.4030,50.0641,right
27741,0.1549,0.0593,0.3588,21.73,-19.94,33.15,0.3953,44.3637,right
27761,0.1663,0.0674,0.3564,16.85,-18.55,26.44,0.3990,36.4335,right
27781,0.1558,0.0630,0.3718,14.26,-13.71,20.08,0.4080,28.1843,right
27801,0.1268,0.0719,0.3853,11.76,-13.27,14.92,0.4119,23.1669,right
27821,0.1368,0.0717,0.3837,10.15,-14.89,10.00,0.4136,20.6072,right
27841,0.1542,0.0696,0.3823,8.53,-9.79,4.12,0.4181,13.6234,right
27861,0.1270,0.0846,0.3861,6.37,-5.88,1.76,0.4152,8.8410,right
27881,0.1074,0.0857,0.3972,5.10,-5.34,-0.18,0.4203,7.3884,right
27901,0.0991,0.0815,0.4036,4.58,-7.59,-2.67,0.4235,9.2569,right
27921,0.0914,0.0820,0.4061,3.86,-10.92,-5.10,0.4243,12.6523,right
27941,0.0885,0.0863,0.4092,3.08,-13.94,-6.31,0.4274,15.6065,right
27961,0.0887,0.0912,0.4042,1.48,-16.56,-5.85,0.4237,17.6289,right
27981,0.1053,0.0919,0.3990,-0.35,-12.99,-4.84,0.4228,13.8689,right
28001,0.1163,0.0920,0.3982,-1.19,-6.09,-4.31,0.4249,7.5539,right
28021,0.1091,0.0973,0.4000,-3.28,-1.85,-2.41,0.4259,4.4728,right
28041,0.0992,0.0953,0.4005,-4.93,1.45,-0.79,0.4235,5.2011,right
28061,0.0890,0.0890,0.4054,-5.31,0.64,0.38,0.4245,5.3651,right
28081,0.0935,0.0886,0.4067,-5.57,-1.83,0.78,0.4267,5.9174,right
28101,0.0909,0.0853,0.4080,-4.99,-4.79,0.38,0.4266,6.9319,right
28121,0.1012,0.0844,0.4059,-4.72,-6.55,0.41,0.4267,8.0823,right
28141,0.1135,0.0839,0.3939,-4.05,-3.66,-0.29,0.4184,5.4661,right
28161,0.1035,0.0863,0.3975,-3.80,0.37,-0.44,0.4197,3.8447,right
28181,0.0991,0.0846,0.4066,-3.30,-0.03,0.06,0.4270,3.2984,right
28201,0.1036,0.0813,0.4077,-2.56,-0.60,0.21,0.4285,2.6418,right
28221,0.0966,0.0806,0.4065,-1.69,-0.24,0.41,0.4255,1.7611,right
28241,0.0977,0.0791,0.4105,-0.90,-1.02,1.01,0.4293,1.6950,right
28261,0.1017,0.0804,0.4091,0.03,-3.02,0.47,0.4291,3.0599,right
28281,0.1040,0.0778,0.4012,0.35,-2.40,-0.06,0.4217,2.4233,stop
28301,0.0986,0.0763,0.3989,0.75,-1.86,-0.35,0.4180,2.0377,stop
28321,0.0999,0.0789,0.4026,1.21,-2.12,-0.52,0.4222,2.4955,stop
28341,0.0980,0.0850,0.3961,0.93,-1.44,-0.29,0.4168,1.7352,stop
28361,0.0967,0.0790,0.3969,0.32,0.17,-0.18,0.4160,0.4057,stop
28381,0.0924,0.0760,0.4042,-0.31,0.24,0.44,0.4215,0.5907,stop
28401,0.0951,0.0741,0.4095,0.06,-1.13,0.67,0.4269,1.3158,stop
28421,0.1030,0.0773,0.4080,0.29,-2.46,0.29,0.4278,2.4920,stop
28441,0.1017,0.0785,0.4058,0.15,-2.02,0.61,0.4256,2.1113,stop
28461,0.0996,0.0785,0.4110,0.41,-2.27,1.13,0.4301,2.5731,stop
28481,0.1077,0.0762,0.4153,0.76,-3.21,0.82,0.4357,3.3973,stop
28501,0.1095,0.0798,0.4048,1.01,-2.82,-0.02,0.4269,2.9988,stop
28521,0.1133,0.0793,0.4011,0.20,-1.83,-0.52,0.4243,1.9145,stop
28541,0.1084,0.0759,0.4021,0.05,-1.22,-0.55,0.4233,1.3401,stop
28561,0.1039,0.0782,0.4021,0.17,-2.17,-1.39,0.4226,2.5804,stop
28581,0.1010,0.0769,0.3997,-0.37,-2.06,-1.94,0.4193,2.8534,stop
28601,0.1044,0.0818,0.3934,-1.34,-1.76,-2.00,0.4152,2.9812,stop
28621,0.1013,0.0745,0.4005,-2.03,-1.21,-2.17,0.4198,3.2059,stop
28641,0.1024,0.0753,0.3949,-2.95,-1.08,-1.65,0.4149,3.5463,stop
28661,0.1031,0.0785,0.3895,-4.90,-0.64,-1.36,0.4105,5.1259,stop
28681,0.1033,0.0762,0.3896,-6.92,0.40,-1.04,0.4102,7.0048,stop
28701,0.1067,0.0790,0.3906,-8.56,-1.18,-0.90,0.4126,8.6920,stop
28721,0.1128,0.0803,0.3746,-11.73,-1.91,-1.36,0.3994,11.9569,stop
28741,0.1240,0.0762,0.3497,-16.34,-1.37,-2.81,0.3788,16.6325,stop
28761,0.1373,0.0746,0.3401,-21.69,-0.46,-5.36,0.3743,22.3514,stop
28781,0.1389,0.0725,0.3286,-28.21,-1.85,-9.04,0.3641,29.6836,stop
28801,0.1373,0.0712,0.3071,-36.99,-8.53,-13.66,0.3439,40.3482,stop
28821,0.1361,0.0707,0.2686,-49.15,-17.80,-19.07,0.3093,55.6394,stop
28841,0.1333,0.0560,0.2346,-65.60,-28.67,-22.53,0.2756,75.0575,stop
28861,0.1569,0.0414,0.1960,-82.26,-30.43,-26.00,0.2545,91.4793,stop
28881,0.1733,0.0167,0.1809,-98.84,-19.85,-30.67,0.2511,105.3753,stop
28901,0.1555,-0.0278,0.1755,-118.44,-0.26,-29.34,0.2362,122.0237,stop
28921,0.1333,-0.0729,0.1792,-135.54,22.37,-26.79,0.2349,139.9636,stop
28941,0.1252,-0.1111,0.1902,-150.43,33.27,-25.28,0.2534,156.1228,stop
28961,0.1101,-0.1339,0.1923,-165.56,36.85,-24.46,0.2589,171.3642,stop
28981,0.0471,-0.1903,0.2367,-180.24,29.48,-22.47,0.3073,184.0168,stop
29001,-0.0370,-0.2571,0.2795,-190.90,3.45,-21.69,0.3816,192.1605,stop
29021,0.0027,-0.3158,0.2725,-196.06,-29.19,-26.31,0.4171,199.9600,stop
29041,0.1111,-0.3358,0.2255,-201.60,-22.64,-33.98,0.4195,205.6973,stop
29061,0.1056,-0.3556,0.2262,-207.80,10.58,-25.02,0.4345,209.5699,stop
29081,0.0579,-0.3987,0.2627,-215.15,22.78,-10.03,0.4809,216.5799,stop
29101,-0.0074,-0.4530,0.2827,-218.69,11.02,-0.05,0.5340,218.9647,stop
29121,-0.0168,-0.5027,0.2996,-214.53,-11.66,2.61,0.5854,214.8671,stop
29141,0.0302,-0.5449,0.3053,-207.13,-20.47,0.35,0.6253,208.1394,stop
29161,0.0900,-0.5645,0.2935,-199.77,-6.53,-0.15,0.6425,199.8779,stop
29181,0.0806,-0.5632,0.2656,-194.34,13.01,6.87,0.6279,194.8918,stop
29201,0.0281,-0.5657,0.2888,-191.05,15.76,20.09,0.6358,192.7520,stop
29221,0.0009,-0.6106,0.2982,-185.91,-3.24,30.60,0.6795,188.4370,stop
29241,0.0223,-0.6370,0.2695,-160.64,-24.53,29.54,0.6920,165.1674,stop
29261,0.0732,-0.6107,0.2142,-145.08,-33.65,16.60,0.6513,149.8566,stop
29281,0.1078,-0.5977,0.1743,-134.69,-27.77,10.34,0.6318,137.9081,stop
29301,0.1244,-0.6029,0.1716,-122.76,-16.29,18.24,0.6391,125.1761,stop
29321,0.1292,-0.6100,0.1708,-106.92,-2.76,29.31,0.6465,110.8960,stop
29341,0.1105,-0.6006,0.1495,-93.21,3.95,33.76,0.6287,99.2092,stop
29361,0.1200,-0.5945,0.1357,-79.15,6.85,27.40,0.6215,84.0353,stop
29381,0.1227,-0.5806,0.1094,-66.87,3.01,16.09,0.6034,68.8448,stop
29401,0.1003,-0.5558,0.0729,-56.85,-0.09,10.44,0.5695,57.8061,stop
29421,0.1205,-0.5521,0.0673,-46.34,-1.37,8.81,0.5691,47.1858,stop
29441,0.1538,-0.5569,0.0585,-35.15,5.54,0.34,0.5807,35.5809,stop
29461,0.1317,-0.5405,0.0658,-26.09,14.18,-3.98,0.5602,29.9635,stop
29481,0.1261,-0.5342,0.0767,-18.21,18.46,-6.17,0.5542,26.6549,stop
29501,0.1014,-0.5360,0.0703,-10.95,19.30,-7.92,0.5500,23.5587,stop
29521,0.0583,-0.5420,0.0695,-3.66,13.53,-9.76,0.5495,17.0755,stop
29541,0.0541,-0.5530,0.0719,5.28,4.73,-11.48,0.5602,13.4950,stop
29561,0.0817,-0.5652,0.0935,15.40,2.46,-16.12,0.5787,22.4336,stop
29581,0.0792,-0.5616,0.1003,26.70,5.92,-16.09,0.5760,31.7339,stop
29601,0.0732,-0.5502,0.0785,36.24,12.58,-11.59,0.5605,40.0772,stop
29621,0.0734,-0.5576,0.0898,44.14,16.70,-8.03,0.5696,47.8703,stop
29641,0.0629,-0.5547,0.0977,53.31,15.82,-5.94,0.5667,55.9260,stop
29661,0.0618,-0.5729,0.1315,64.76,10.44,-5.48,0.5910,65.8284,stop
29681,0.0682,-0.5789,0.1385,77.31,5.71,-7.73,0.5991,77.9075,stop
29701,0.0692,-0.5752,0.1262,88.67,4.23,-11.01,0.5929,89.4524,stop
29721,0.0732,-0.5718,0.1510,99.71,3.13,-11.37,0.5959,100.4053,stop
29741,0.0800,-0.5854,0.1827,112.63,2.24,-10.50,0.6185,113.1370,stop
29761,0.0717,-0.5854,0.2036,127.19,-0.76,-10.63,0.6240,127.6362,stop
29781,0.0588,-0.5660,0.1636,137.85,-6.17,-13.07,0.5921,138.6028,stop
29801,0.0768,-0.5398,0.1461,145.13,-6.72,-16.31,0.5645,146.1973,stop
29821,0.1116,-0.5310,0.1670,151.54,1.21,-17.21,0.5677,152.5204,stop
29841,0.0839,-0.5238,0.2274,159.44,7.01,-11.07,0.5772,159.9724,stop
29861,0.0710,-0.5135,0.2456,164.47,4.61,-5.07,0.5737,164.6160,stop
29881,0.0757,-0.5009,0.2311,167.62,2.14,-6.76,0.5568,167.7683,stop
29901,0.0664,-0.4948,0.2382,173.04,1.19,-9.19,0.5531,173.2862,stop
29921,0.0692,-0.4713,0.2443,179.33,-10.02,-11.91,0.5353,180.0020,stop
29941,0.0890,-0.4460,0.2570,181.65,-14.23,-14.21,0.5224,182.7589,stop
29961,0.1097,-0.4263,0.2747,183.22,-13.11,-16.00,0.5188,184.3856,stop
29981,0.1066,-0.3925,0.2826,185.28,-8.92,-14.26,0.4952,186.0441,stop
30001,0.0717,-0.3453,0.2789,182.92,-7.57,-7.57,0.4497,183.2293,stop
30021,0.0551,-0.3187,0.2924,175.66,-17.05,-2.26,0.4360,176.5044,stop
30041,0.0861,-0.3077,0.2990,172.02,-28.82,-5.45,0.4376,174.4987,stop
30061,0.1035,-0.2777,0.3054,171.85,-28.02,-8.84,0.4256,174.3402,stop
30081,0.1072,-0.2380,0.3285,174.43,-25.05,-7.63,0.4196,176.3828,stop
30101,0.1050,-0.1823,0.3042,171.92,-27.94,-5.82,0.3698,174.2761,stop
30121,0.1024,-0.1284,0.2825,162.43,-26.98,-3.34,0.3268,164.6865,stop
30141,0.1100,-0.1027,0.2957,150.84,-24.95,-2.12,0.3317,152.9034,stop
30161,0.1171,-0.0889,0.3003,142.31,-23.79,-1.42,0.3343,144.2866,stop
30181,0.1066,-0.0447,0.2717,132.73,-20.43,2.24,0.2953,134.3143,stop
30201,0.1199,-0.0139,0.2646,120.84,-17.19,5.04,0.2909,122.1603,stop
30221,0.1281,0.0070,0.2725,106.06,-12.70,7.85,0.3011,107.1068,stop
30241,0.1351,0.0214,0.2814,92.84,-9.56,10.58,0.3129,93.9281,stop
30261,0.1283,0.0426,0.2852,81.62,-8.98,12.95,0.3156,83.1249,stop
30281,0.1271,0.0681,0.2800,70.66,-10.78,14.24,0.3150,72.8795,stop
30301,0.1407,0.0775,0.2762,57.62,-13.51,15.19,0.3196,61.0999,stop
30321,0.1616,0.0808,0.2853,46.26,-14.53,15.62,0.3377,50.9424,stop
30341,0.1813,0.0797,0.3073,40.12,-10.35,14.63,0.3655,43.9414,stop
30361,0.1785,0.0929,0.3108,34.02,-4.26,12.52,0.3702,36.4953,stop
30381,0.1766,0.0992,0.3177,25.88,1.21,10.87,0.3768,28.0941,stop
30401,0.1709,0.0979,0.3364,18.18,4.02,10.12,0.3898,21.1946,stop
30421,0.1521,0.0944,0.3599,12.34,-0.18,10.23,0.4019,16.0262,stop
30441,0.1619,0.0996,0.3484,7.22,-5.86,9.88,0.3969,13.5680,stop
30461,0.1869,0.1058,0.3411,3.33,-3.62,8.69,0.4031,9.9817,stop
30481,0.1881,0.1060,0.3611,0.67,5.48,9.69,0.4207,11.1570,stop
30501,0.1599,0.1022,0.3809,-1.16,6.37,10.06,0.4255,11.9626,stop
30521,0.1472,0.0983,0.3967,-2.67,1.02,8.23,0.4344,8.7121,stop
30541,0.1561,0.0912,0.3995,-3.08,-5.15,5.51,0.4385,8.1461,stop
30561,0.1738,0.0911,0.3792,-2.99,-4.98,5.31,0.4269,7.8711,stop
30581,0.1810,0.0913,0.3750,-3.11,1.31,4.78,0.4263,5.8531,stop
30601,0.1576,0.0884,0.3870,-3.53,2.52,4.56,0.4271,6.2946,stop
30621,0.1578,0.0911,0.3977,-3.54,-1.18,4.12,0.4375,5.5605,stop
30641,0.1681,0.0829,0.4042,-2.82,-2.46,2.84,0.4455,4.6993,stop
30661,0.1772,0.0867,0.3997,-2.53,-2.23,1.48,0.4457,3.6857,stop
30681,0.1697,0.0864,0.4044,-2.55,-3.71,0.50,0.4470,4.5297,stop
30701,0.1736,0.0735,0.4087,-1.24,-5.82,-2.18,0.4501,6.3349,stop
