time_ms,ax,ay,az,gx,gy,gz,acc_mag,gyro_mag,label
27043,0.0553,0.0552,0.4207,-0.09,1.44,-0.78,0.4278,1.6353,idle
27063,0.0494,0.0500,0.4142,-0.05,-1.30,-0.81,0.4201,1.5300,idle
27083,0.0570,0.0559,0.4103,-0.12,-2.18,-1.11,0.4180,2.4543,idle
27103,0.0612,0.0529,0.4078,-0.52,-0.46,-1.08,0.4158,1.2862,idle
27123,0.0505,0.0552,0.4126,-1.48,1.13,-0.18,0.4193,1.8716,idle
27143,0.0460,0.0525,0.4082,-1.59,-0.89,0.06,0.4141,1.8190,idle
27163,0.0486,0.0570,0.4154,-1.24,-3.27,-0.18,0.4221,3.4982,idle
27183,0.0610,0.0603,0.4071,-1.63,-2.47,0.15,0.4160,2.9680,idle
27203,0.0609,0.0563,0.4047,-1.83,0.23,0.84,0.4131,2.0283,idle
27223,0.0549,0.0599,0.4115,-1.59,0.87,1.40,0.4195,2.2916,idle
27243,0.0555,0.0565,0.4163,-0.96,0.17,1.40,0.4237,1.7106,idle
27263,0.0610,0.0562,0.4167,-0.47,-0.72,1.34,0.4249,1.5950,idle
27283,0.0591,0.0580,0.4160,-0.70,-0.67,1.65,0.4242,1.9139,idle
27303,0.0599,0.0555,0.4095,-0.75,-1.44,1.56,0.4176,2.2459,idle
27323,0.0619,0.0546,0.4103,-0.31,-2.35,0.17,0.4185,2.3768,idle
27343,0.0636,0.0526,0.4142,-0.53,-2.15,-0.52,0.4223,2.2779,idle
27363,0.0587,0.0551,0.4081,-0.90,-1.71,-1.10,0.4159,2.2234,idle
27383,0.0576,0.0565,0.4149,-0.66,-3.02,-1.31,0.4227,3.3605,idle
27403,0.0631,0.0569,0.4141,-0.56,-3.44,-1.56,0.4227,3.8137,idle
27423,0.0676,0.0543,0.4115,-0.46,-1.30,-1.65,0.4205,2.1477,idle
27443,0.0583,0.0510,0.4131,0.02,-0.17,-1.82,0.4203,1.8246,idle
27463,0.0515,0.0531,0.4196,0.75,-1.48,-1.60,0.4260,2.3071,idle
27483,0.0521,0.0503,0.4139,1.11,-2.89,-1.54,0.4202,3.4563,idle
27503,0.0574,0.0509,0.4135,1.24,-2.96,-1.79,0.4205,3.6732,idle
27523,0.0536,0.0518,0.4122,0.63,-3.11,-1.42,0.4189,3.4796,idle
27543,0.0544,0.0533,0.4135,0.63,-3.83,-1.51,0.4204,4.1667,idle
27563,0.0557,0.0509,0.4119,0.55,-3.16,-1.68,0.4187,3.6208,idle
27583,0.0551,0.0552,0.4109,0.08,-2.60,-1.66,0.4182,3.0840,idle
27603,0.0557,0.0526,0.4120,-0.41,-0.64,-1.40,0.4190,1.5981,idle
27623,0.0490,0.0518,0.4144,-0.60,-0.37,-0.67,0.4205,0.9696,idle
27643,0.0443,0.0521,0.4143,-0.56,-1.28,0.17,0.4199,1.4114,idle
27663,0.0551,0.0503,0.4130,-0.70,-1.88,0.24,0.4196,2.0197,idle
27683,0.0555,0.0526,0.4093,-0.95,-0.03,-0.20,0.4164,0.9676,idle
27703,0.0476,0.0522,0.4155,-1.50,0.23,0.72,0.4215,1.6751,idle
27723,0.0513,0.0490,0.4208,-1.02,-0.66,1.21,0.4267,1.7123,idle
27743,0.0536,0.0459,0.4169,0.38,-1.18,0.76,0.4228,1.4527,idle
27763,0.0535,0.0496,0.4169,0.40,-0.81,0.87,0.4232,1.2528,idle
27783,0.0430,0.0499,0.4208,0.75,-2.31,1.69,0.4259,2.9574,idle
27803,0.0522,0.0487,0.4159,2.05,-3.89,1.62,0.4220,4.6862,idle
27823,0.0531,0.0510,0.4042,1.73,-3.60,1.79,0.4108,4.3760,idle
27843,0.0629,0.0546,0.4021,0.75,-1.80,1.71,0.4106,2.5940,idle
27863,0.0590,0.0526,0.4073,-0.14,-0.50,1.51,0.4149,1.5991,idle
27883,0.0586,0.0494,0.4081,-1.21,-0.61,0.82,0.4152,1.5834,idle
27903,0.0530,0.0487,0.4103,-2.60,0.34,0.47,0.4165,2.6595,idle
27923,0.0474,0.0465,0.4124,-2.70,-1.05,1.19,0.4177,3.1353,idle
27943,0.0483,0.0461,0.4181,-2.15,-2.08,1.54,0.4234,3.3649,idle
27963,0.0540,0.0399,0.4163,-1.02,-1.77,1.05,0.4216,2.3005,idle
27983,0.0543,0.0500,0.4161,-0.08,-1.04,0.60,0.4226,1.1992,idle
28003,0.0515,0.0522,0.4111,0.38,-1.37,0.78,0.4176,1.6248,idle
28023,0.0585,0.0487,0.4139,1.18,-2.32,0.58,0.4209,2.6653,idle
28043,0.0667,0.0492,0.4065,1.30,-0.89,0.52,0.4148,1.6546,idle
28063,0.0546,0.0486,0.4056,0.46,-0.08,1.16,0.4122,1.2498,idle
28083,0.0546,0.0500,0.4103,0.55,-2.44,0.43,0.4169,2.5400,idle
28103,0.0665,0.0461,0.4025,0.41,-2.27,-0.69,0.4105,2.4118,idle
28123,0.0604,0.0496,0.4089,0.08,-0.69,-1.08,0.4163,1.2856,idle
28143,0.0541,0.0486,0.4076,0.24,-0.34,-0.72,0.4140,0.8291,idle
28163,0.0560,0.0515,0.4092,0.20,-1.05,-0.34,0.4162,1.1234,idle
28183,0.0580,0.0494,0.4180,0.24,0.26,-1.04,0.4249,1.0976,idle
28203,0.0500,0.0499,0.4158,-0.11,1.42,-0.79,0.4217,1.6302,idle
28223,0.0415,0.0485,0.4244,0.23,-0.81,0.14,0.4292,0.8521,idle
28243,0.0505,0.0459,0.4237,0.95,-3.15,0.69,0.4292,3.3555,idle
28263,0.0627,0.0454,0.4185,0.64,-1.25,0.44,0.4256,1.4746,idle
28283,0.0557,0.0455,0.4181,-0.18,1.08,-0.05,0.4242,1.1003,idle
28303,0.0433,0.0457,0.4192,-0.58,-0.52,-0.20,0.4239,0.8034,idle
28323,0.0504,0.0465,0.4147,-0.98,-3.24,-0.61,0.4203,3.4356,idle
28343,0.0621,0.0477,0.4058,-1.74,-1.71,-0.89,0.4133,2.5956,idle
28363,0.0681,0.0428,0.4142,-2.47,1.24,-1.34,0.4219,3.0743,idle
28383,0.0616,0.0455,0.4097,-3.16,2.29,-1.60,0.4168,4.2192,idle
28403,0.0459,0.0455,0.4166,-2.53,0.85,-1.48,0.4216,3.0573,idle
28423,0.0549,0.0447,0.4155,-1.36,-2.09,-1.95,0.4215,3.1686,idle
28443,0.0596,0.0437,0.4143,-1.30,-1.22,-2.26,0.4208,2.8777,idle
28463,0.0552,0.0453,0.4171,-0.50,-0.41,-2.06,0.4232,2.1614,idle
28483,0.0540,0.0416,0.4153,0.50,-0.95,-2.29,0.4208,2.5287,idle
28503,0.0383,0.0450,0.4187,0.72,-2.41,-1.79,0.4229,3.0862,idle
28523,0.0504,0.0453,0.4102,0.92,-5.71,-2.03,0.4157,6.1291,idle
28543,0.0547,0.0499,0.4135,1.27,-4.56,-2.14,0.4200,5.1973,idle
28563,0.0590,0.0443,0.4117,1.33,-2.12,-2.20,0.4183,3.3318,idle
28583,0.0515,0.0477,0.4139,0.72,-0.05,-1.40,0.4199,1.5779,idle
28603,0.0415,0.0463,0.4176,0.46,-0.78,-1.11,0.4222,1.4346,idle
28623,0.0474,0.0398,0.4240,1.53,-2.70,-1.48,0.4284,3.4389,idle
28643,0.0540,0.0427,0.4171,1.39,-2.35,-1.15,0.4228,2.9613,idle
28663,0.0546,0.0385,0.4158,1.86,-0.38,-1.48,0.4211,2.4100,idle
28683,0.0463,0.0394,0.4163,1.57,-0.67,-1.56,0.4207,2.3128,idle
28703,0.0415,0.0424,0.4167,1.95,-3.69,-0.92,0.4209,4.2788,idle
28723,0.0543,0.0422,0.4147,1.92,-4.58,-1.31,0.4203,5.1383,idle
28743,0.0605,0.0493,0.4070,1.45,-3.10,-1.91,0.4144,3.9180,idle
28763,0.0494,0.0503,0.4130,0.50,-0.34,-1.51,0.4189,1.6282,idle
28783,0.0463,0.0454,0.4122,0.92,-0.76,-0.92,0.4173,1.5036,idle
28803,0.0458,0.0413,0.4117,1.15,-0.56,-0.41,0.4163,1.3417,idle
28823,0.0461,0.0458,0.4121,1.08,-1.10,0.02,0.4172,1.5439,idle
28843,0.0454,0.0417,0.4091,0.37,-1.97,0.23,0.4137,2.0163,idle
28863,0.0499,0.0391,0.4146,0.06,-2.89,-0.29,0.4194,2.9007,idle
28883,0.0565,0.0463,0.4099,-0.21,-3.02,-0.79,0.4164,3.1327,idle
28903,0.0582,0.0469,0.4053,-0.64,-1.73,-1.16,0.4121,2.1757,idle
28923,0.0579,0.0438,0.4089,-1.31,-0.23,-1.22,0.4153,1.8078,idle
28943,0.0557,0.0419,0.4183,-1.19,0.03,-1.48,0.4241,1.9006,idle
28963,0.0537,0.0415,0.4171,-0.82,-0.29,-1.71,0.4226,1.9203,idle
28983,0.0491,0.0428,0.4175,-0.75,-0.78,-1.54,0.4225,1.8824,idle
29003,0.0472,0.0409,0.4188,-0.05,-2.93,-1.85,0.4235,3.4651,idle
29023,0.0536,0.0444,0.4186,0.35,-4.00,-2.20,0.4243,4.5778,idle
29043,0.0515,0.0475,0.4177,0.34,-2.53,-2.31,0.4236,3.4424,idle
29063,0.0475,0.0460,0.4176,0.60,-2.90,-1.71,0.4228,3.4195,idle
29083,0.0488,0.0415,0.4175,1.34,-2.70,-1.25,0.4224,3.2672,idle
29103,0.0487,0.0464,0.4125,1.76,-1.89,-0.98,0.4179,2.7607,idle
29123,0.0487,0.0447,0.4174,1.51,-1.27,-0.93,0.4226,2.1812,idle
29143,0.0479,0.0425,0.4137,0.78,-1.13,-0.31,0.4186,1.4057,idle
29163,0.0504,0.0396,0.4111,0.67,-1.40,-0.31,0.4161,1.5866,idle
29183,0.0530,0.0410,0.4130,0.56,-0.78,-0.26,0.4184,0.9964,idle
29203,0.0531,0.0426,0.4119,0.46,-0.44,-0.60,0.4175,0.8720,idle
29223,0.0446,0.0416,0.4126,0.76,-1.01,-0.85,0.4171,1.5261,idle
29243,0.0474,0.0383,0.4136,1.13,-4.00,-0.92,0.4180,4.2562,idle
29263,0.0536,0.0406,0.4110,1.04,-4.93,-1.21,0.4165,5.1817,idle
29283,0.0591,0.0426,0.4098,0.27,-2.67,-1.13,0.4162,2.9138,idle
29303,0.0519,0.0453,0.4093,-0.18,-1.53,-0.98,0.4151,1.8219,idle
29323,0.0453,0.0405,0.4125,-0.12,-2.46,-0.64,0.4169,2.5432,idle
29343,0.0469,0.0448,0.4111,0.14,-3.39,-1.02,0.4162,3.5430,idle
29363,0.0573,0.0424,0.4149,-0.29,-1.82,-1.50,0.4210,2.3714,idle
29383,0.0542,0.0414,0.4132,-0.67,0.09,-1.54,0.4188,1.6844,idle
29403,0.0435,0.0448,0.4187,-0.72,-0.85,-0.75,0.4233,1.3437,idle
29423,0.0469,0.0431,0.4202,0.24,-2.84,-0.70,0.4250,2.9354,idle
29443,0.0551,0.0402,0.4220,0.43,-3.02,-0.84,0.4275,3.1663,idle
29463,0.0519,0.0416,0.4209,0.43,-1.82,-0.93,0.4261,2.0859,idle
29483,0.0499,0.0436,0.4194,0.34,-2.09,-0.44,0.4246,2.1642,idle
29503,0.0510,0.0433,0.4165,0.90,-1.63,-0.64,0.4218,1.9726,idle
29523,0.0524,0.0403,0.4182,1.31,-0.76,-0.92,0.4234,1.7736,idle
29543,0.0458,0.0398,0.4183,1.47,-0.79,-0.58,0.4227,1.7649,idle
29563,0.0461,0.0389,0.4197,1.86,-1.89,-0.32,0.4240,2.6751,idle
29583,0.0505,0.0415,0.4136,1.79,-2.29,-0.20,0.4187,2.9111,idle
29603,0.0551,0.0411,0.4109,1.36,-1.57,-0.58,0.4166,2.1577,idle
29623,0.0468,0.0465,0.4124,0.96,-1.24,-0.56,0.4176,1.6654,idle
29643,0.0483,0.0406,0.4159,1.30,-2.29,-0.20,0.4207,2.6397,idle
29663,0.0547,0.0422,0.4095,1.71,-2.18,-0.27,0.4153,2.7867,idle
29683,0.0532,0.0449,0.4099,1.15,-1.39,-0.81,0.4158,1.9738,idle
29703,0.0520,0.0415,0.4060,0.20,-0.58,-1.18,0.4114,1.3259,idle
29723,0.0443,0.0387,0.4150,-0.21,-1.47,-1.01,0.4192,1.7914,idle
29743,0.0496,0.0386,0.4143,0.52,-2.89,-0.96,0.4190,3.0856,idle
29763,0.0548,0.0437,0.4147,0.21,-1.68,-0.93,0.4206,1.9322,idle
29783,0.0507,0.0409,0.4148,0.03,-1.13,-1.19,0.4199,1.6418,idle
29803,0.0477,0.0449,0.4117,-0.63,-1.54,-1.33,0.4169,2.1293,idle
29823,0.0481,0.0405,0.4147,0.06,-2.12,-1.08,0.4194,2.3837,idle
29843,0.0527,0.0399,0.4103,0.35,-1.65,-0.99,0.4156,1.9562,idle
29863,0.0491,0.0444,0.4146,0.43,-1.37,-0.63,0.4198,1.5693,idle
29883,0.0420,0.0425,0.4160,0.41,-2.35,-0.55,0.4203,2.4495,idle
29903,0.0474,0.0430,0.4158,0.67,-3.66,-0.52,0.4207,3.7612,idle
29923,0.0576,0.0454,0.4111,0.84,-3.02,-0.81,0.4176,3.2400,idle
29943,0.0645,0.0437,0.4103,0.49,0.27,-1.07,0.4176,1.2068,idle
29963,0.0491,0.0400,0.4181,-0.08,1.62,-0.66,0.4229,1.7481,idle
29983,0.0420,0.0360,0.4220,0.49,-1.24,-0.90,0.4256,1.6060,idle
30003,0.0443,0.0364,0.4160,0.85,-4.56,-1.53,0.4199,4.8888,idle
30023,0.0521,0.0404,0.4143,0.81,-4.69,-1.65,0.4195,5.0340,idle
30043,0.0481,0.0406,0.4115,0.11,-3.19,-1.22,0.4163,3.4183,idle
30063,0.0466,0.0424,0.4103,0.18,-3.16,-0.89,0.4151,3.2871,idle
30083,0.0469,0.0459,0.4084,0.08,-2.56,-1.07,0.4137,2.7797,idle
30103,0.0535,0.0452,0.4116,-0.12,-1.42,-0.50,0.4175,1.5115,idle
30123,0.0553,0.0449,0.4121,-0.60,0.79,-0.15,0.4182,1.0040,forward
30143,0.0460,0.0377,0.4208,-0.52,0.92,-0.26,0.4250,1.0844,forward
30163,0.0470,0.0394,0.4148,-0.32,-1.01,-0.55,0.4193,1.1917,forward
30183,0.0472,0.0348,0.4178,-0.17,-2.64,-0.67,0.4219,2.7305,forward
30203,0.0520,0.0391,0.4154,0.11,-3.65,-0.66,0.4205,3.7090,forward
30223,0.0563,0.0410,0.4166,0.17,-2.72,-0.99,0.4224,2.8979,forward
30243,0.0531,0.0375,0.4109,-0.46,-1.56,-1.08,0.4160,1.9519,forward
30263,0.0549,0.0381,0.4144,-0.76,-1.01,-1.60,0.4198,2.0415,forward
30283,0.0516,0.0391,0.4091,-1.02,-1.47,-1.88,0.4142,2.5925,forward
30303,0.0433,0.0364,0.4159,-0.98,-3.18,-1.63,0.4197,3.7024,forward
30323,0.0503,0.0404,0.4133,-0.85,-4.43,-1.79,0.4183,4.8502,forward
30343,0.0558,0.0425,0.4124,-1.24,-3.42,-2.12,0.4183,4.2105,forward
30363,0.0519,0.0428,0.4127,-2.02,-2.18,-1.89,0.4182,3.5230,forward
30383,0.0503,0.0402,0.4127,-1.79,-2.72,-2.34,0.4177,4.0040,forward
30403,0.0453,0.0425,0.4210,-1.13,-2.92,-2.12,0.4256,3.7793,forward
30423,0.0488,0.0444,0.4233,-0.15,-3.30,-2.20,0.4285,3.9663,forward
30443,0.0581,0.0450,0.4288,0.70,-2.35,-2.47,0.4351,3.4840,forward
30463,0.0618,0.0417,0.4373,2.64,0.70,-3.11,0.4436,4.1436,forward
30483,0.0367,0.0479,0.4583,5.05,-0.52,-2.18,0.4622,5.5293,forward
30503,0.0353,0.0503,0.4752,8.81,-6.99,-2.35,0.4792,11.4901,forward
30523,0.0283,0.0411,0.5040,13.66,-14.15,-1.80,0.5065,19.7548,forward
30543,0.0511,0.0258,0.5388,23.21,-20.08,-1.69,0.5419,30.7320,forward
30563,0.0197,0.0336,0.5514,33.98,-29.11,-2.11,0.5528,44.8002,forward
30583,0.0231,0.0450,0.5498,45.53,-43.16,-2.72,0.5521,62.7923,forward
30603,0.0856,0.0334,0.5568,59.25,-48.32,-5.83,0.5643,76.6791,forward
30623,0.1234,0.0322,0.5580,74.50,-40.47,-9.15,0.5724,85.2792,forward
30643,0.1075,0.0488,0.5413,88.75,-30.99,-10.05,0.5540,94.5392,forward
30663,0.0994,0.0688,0.5151,95.04,-26.12,-13.82,0.5291,99.5265,forward
30683,0.0684,0.0822,0.4996,105.02,-31.22,-14.53,0.5109,110.5253,forward
30703,0.0610,0.0983,0.4877,115.50,-42.09,-16.40,0.5012,124.0159,forward
30723,0.0607,0.1227,0.4928,127.42,-53.95,-21.56,0.5114,140.0414,forward
30743,0.1096,0.1398,0.4648,139.83,-64.44,-26.18,0.4976,156.1776,forward
30763,0.1826,0.1390,0.4150,150.24,-53.24,-31.02,0.4743,162.3881,forward
30783,0.1720,0.1558,0.3607,156.93,-30.47,-32.55,0.4289,163.1427,forward
30803,0.1274,0.1821,0.3381,162.96,-16.72,-33.51,0.4047,167.2096,forward
30823,0.0914,0.2067,0.3149,166.15,-26.55,-36.63,0.3876,172.2006,forward
30843,0.1056,0.2245,0.2837,167.73,-40.98,-44.09,0.3769,178.1991,forward
30863,0.1293,0.2396,0.2357,164.35,-46.66,-51.45,0.3601,178.4244,forward
30883,0.1525,0.2625,0.1786,160.95,-40.82,-55.88,0.3522,175.1935,forward
30903,0.1583,0.2828,0.1385,156.24,-27.59,-57.98,0.3525,168.9248,forward
30923,0.1509,0.2948,0.1300,150.12,-13.08,-61.02,0.3558,162.5781,forward
30943,0.1218,0.3058,0.1029,143.95,-5.28,-60.79,0.3449,156.3541,forward
30963,0.0765,0.3361,0.0673,135.79,-4.81,-56.92,0.3512,147.3108,forward
30983,-0.0024,0.3651,0.0514,123.89,-19.63,-52.14,0.3687,135.8429,forward
31003,0.0073,0.3860,0.0293,113.08,-40.17,-47.54,0.3872,129.0802,forward
31023,0.0668,0.3958,0.0028,100.06,-44.53,-43.07,0.4014,117.6879,forward
31043,0.0897,0.4012,-0.0082,87.91,-32.47,-41.42,0.4112,102.4598,forward
31063,0.0779,0.4237,-0.0126,75.19,-22.17,-38.67,0.4310,87.4104,forward
31083,0.0632,0.4426,-0.0311,63.44,-8.46,-31.45,0.4482,71.3069,forward
31103,0.0461,0.4424,-0.0242,53.07,4.89,-25.59,0.4454,59.1176,forward
31123,0.0160,0.4523,-0.0101,43.94,8.87,-21.10,0.4527,49.5428,forward
31143,0.0059,0.4701,-0.0059,35.24,8.06,-14.00,0.4702,38.7634,forward
31163,0.0281,0.4718,-0.0173,26.14,9.07,-8.23,0.4730,28.8639,forward
31183,0.0284,0.4785,-0.0107,17.31,16.49,-4.84,0.4795,24.3933,forward
31203,0.0021,0.4874,0.0011,9.28,14.61,-0.93,0.4874,17.3350,forward
31223,-0.0079,0.4875,0.0065,0.95,6.27,1.71,0.4877,6.5721,forward
31243,0.0110,0.4858,0.0077,-4.55,1.01,3.94,0.4860,6.1016,forward
31263,0.0265,0.4893,0.0082,-9.95,-0.98,5.33,0.4900,11.3327,forward
31283,0.0353,0.4899,0.0083,-15.51,-1.44,7.05,0.4912,17.1002,forward
31303,0.0410,0.4889,0.0040,-19.71,5.25,7.71,0.4906,21.8061,forward
31323,0.0317,0.4818,0.0201,-22.99,8.96,8.53,0.4833,26.1113,forward
31343,0.0294,0.4827,0.0177,-27.95,6.67,10.27,0.4839,30.5208,forward
31363,0.0178,0.4778,0.0135,-35.21,1.27,12.15,0.4783,37.2661,forward
31383,-0.0123,0.4877,-0.0078,-44.47,-10.73,13.83,0.4879,47.7953,forward
31403,-0.0052,0.4845,-0.0110,-56.55,-21.07,18.23,0.4847,63.0400,forward
31423,0.0524,0.4475,-0.0010,-69.15,-21.28,20.17,0.4506,75.1048,forward
31443,0.0967,0.4327,0.0135,-77.98,-4.53,19.08,0.4436,80.4138,forward
31463,0.1001,0.4204,0.0248,-85.94,13.27,20.05,0.4329,89.2376,forward
31483,0.0731,0.4198,0.0328,-96.03,27.69,23.02,0.4274,102.5617,forward
31503,0.0331,0.4028,0.0656,-103.13,23.94,26.64,0.4095,109.1722,forward
31523,0.0593,0.3749,0.0936,-109.89,12.87,25.45,0.3909,113.5335,forward
31543,0.0902,0.3734,0.0857,-120.15,6.47,22.37,0.3936,122.3880,forward
31563,0.0625,0.3722,0.0906,-131.30,9.48,22.67,0.3881,133.5776,forward
31583,0.0266,0.3496,0.1415,-138.84,4.06,26.47,0.3781,141.3994,forward
31603,0.0243,0.3251,0.1571,-148.12,-14.64,28.37,0.3619,151.5229,forward
31623,0.0942,0.2942,0.1918,-152.98,-23.28,28.27,0.3636,157.3008,forward
31643,0.1820,0.2428,0.2051,-155.60,-7.04,26.72,0.3662,158.0369,forward
31663,0.1459,0.2563,0.2001,-158.23,18.79,25.68,0.3564,161.3972,forward
31683,0.0427,0.2584,0.2477,-160.32,31.42,31.04,0.3605,166.2927,forward
31703,0.0488,0.2056,0.3251,-154.70,31.18,35.10,0.3877,161.6684,forward
31723,0.1119,0.1600,0.3490,-149.05,27.33,32.05,0.3999,154.8893,forward
31743,0.1613,0.1447,0.3328,-141.19,41.53,28.55,0.3971,149.9147,forward
31763,0.0586,0.1644,0.3334,-143.85,51.37,32.00,0.3763,156.0620,forward
31783,-0.0291,0.1487,0.4436,-143.16,23.04,36.60,0.4688,149.5488,forward
31803,0.0532,0.0731,0.4656,-135.16,-9.54,34.03,0.4743,139.7048,forward
31823,0.1700,0.0509,0.4364,-124.15,-11.05,28.44,0.4711,127.8478,forward
31843,0.1764,0.0597,0.4100,-120.99,6.69,30.40,0.4503,124.9314,forward
31863,0.1174,0.0525,0.4624,-112.55,26.29,33.66,0.4800,120.3821,forward
31883,0.0984,0.0109,0.4944,-102.53,26.64,31.37,0.5042,110.4870,forward
31903,0.0779,-0.0138,0.5055,-88.96,26.32,29.86,0.5116,97.4616,forward
31923,0.0642,-0.0173,0.5544,-72.49,19.97,29.47,0.5584,80.7564,forward
31943,0.0911,-0.0164,0.5392,-59.15,9.83,27.24,0.5471,65.8532,forward
31963,0.1206,-0.0195,0.5171,-49.10,9.24,25.37,0.5313,56.0347,forward
31983,0.1021,-0.0289,0.5216,-37.82,15.66,24.84,0.5323,47.8799,forward
32003,0.0975,-0.0365,0.5479,-25.27,14.02,22.21,0.5577,36.4460,forward
32023,0.1034,-0.0327,0.5314,-14.81,9.95,16.93,0.5423,24.5981,forward
32043,0.0836,-0.0212,0.5187,-9.25,5.79,14.44,0.5258,18.1017,forward
32063,0.0647,-0.0181,0.5057,-2.87,-1.68,10.32,0.5102,10.8431,forward
32083,0.0616,-0.0138,0.4927,1.56,-12.82,4.11,0.4967,13.5557,forward
32103,0.0782,-0.0054,0.4672,4.70,-17.11,-0.70,0.4737,17.7626,forward
32123,0.0925,0.0048,0.4480,6.32,-13.22,-3.24,0.4575,15.0077,forward
32143,0.0825,0.0049,0.4370,8.14,-7.13,-4.73,0.4448,11.8089,forward
32163,0.0701,0.0104,0.4307,9.66,-3.27,-5.36,0.4365,11.5233,forward
32183,0.0701,0.0094,0.4271,11.48,-1.83,-5.79,0.4329,12.9865,forward
32203,0.0815,0.0070,0.4172,12.17,2.98,-6.00,0.4252,13.8896,forward
32223,0.0739,0.0089,0.4102,12.14,8.05,-5.97,0.4168,15.7380,forward
32243,0.0723,0.0049,0.4115,12.69,10.64,-6.11,0.4178,17.6491,forward
32263,0.0558,0.0048,0.4155,12.64,11.13,-5.44,0.4193,17.6978,forward
32283,0.0510,0.0059,0.4143,11.91,8.90,-4.93,0.4175,15.6637,forward
32303,0.0464,0.0063,0.4164,10.47,3.59,-4.82,0.4190,12.0763,forward
32323,0.0560,0.0057,0.4094,8.89,-0.29,-5.22,0.4133,10.3101,forward
32343,0.0743,0.0054,0.4067,8.06,0.46,-6.00,0.4135,10.0594,left
32363,0.0677,0.0050,0.4061,6.70,3.28,-5.88,0.4118,9.4997,left
32383,0.0491,0.0115,0.4115,5.48,2.47,-5.27,0.4146,7.9938,left
32403,0.0068,0.0225,0.4193,2.69,-8.70,-3.07,0.4200,9.6108,left
32423,0.0088,0.0173,0.4292,1.34,-28.23,-1.65,0.4296,28.3090,left
32443,0.0760,0.0090,0.3987,1.45,-36.53,-4.18,0.4060,36.8017,left
32463,0.1217,0.0110,0.3866,1.18,-24.72,-5.25,0.4054,25.2967,left
32483,0.1201,0.0121,0.3940,1.51,-7.94,-4.52,0.4121,9.2592,left
32503,0.1003,0.0144,0.4036,3.71,5.36,-3.83,0.4161,7.5607,left
32523,0.0732,0.0165,0.4097,5.21,10.41,-2.76,0.4165,11.9647,left
32543,0.0518,0.0248,0.4139,5.39,7.92,-1.44,0.4179,9.6896,left
32563,0.0475,0.0222,0.4142,4.63,1.68,-0.82,0.4175,4.9899,left
32583,0.0410,0.0266,0.4185,3.02,-5.89,-0.40,0.4213,6.6351,left
32603,0.0656,0.0225,0.4111,2.38,-10.43,-0.34,0.4169,10.7013,left
32623,0.0771,0.0240,0.4058,1.34,-6.96,-0.63,0.4137,7.1179,left
32643,0.0753,0.0249,0.4100,1.28,-2.87,-0.58,0.4176,3.1968,left
32663,0.0646,0.0220,0.4149,1.40,-1.74,0.37,0.4205,2.2663,left
32683,0.0685,0.0261,0.4135,2.21,-1.83,0.93,0.4199,3.0207,left
32703,0.0697,0.0298,0.4113,2.21,0.02,2.12,0.4182,3.0667,left
32723,0.0642,0.0264,0.4142,1.73,1.02,3.18,0.4200,3.7559,left
32743,0.0613,0.0245,0.4209,1.76,0.67,3.39,0.4260,3.8757,left
32763,0.0532,0.0278,0.4191,2.17,-1.27,4.26,0.4233,4.9446,left
32783,0.0573,0.0243,0.4226,2.70,-3.08,5.66,0.4272,6.9925,left
32803,0.0568,0.0227,0.4186,3.50,-1.98,6.95,0.4230,8.0260,left
32823,0.0555,0.0264,0.4159,4.34,-0.52,8.64,0.4204,9.6819,left
32843,0.0507,0.0250,0.4176,4.47,-0.12,11.05,0.4214,11.9249,left
32863,0.0450,0.0251,0.4227,5.13,-0.82,13.47,0.4259,14.4332,left
32883,0.0459,0.0253,0.4276,6.76,-1.57,16.44,0.4308,17.8488,left
32903,0.0447,0.0280,0.4254,8.35,-0.66,20.02,0.4287,21.6975,left
32923,0.0449,0.0354,0.4125,8.64,0.46,23.42,0.4164,24.9674,left
32943,0.0334,0.0366,0.4131,8.76,1.13,26.93,0.4161,28.3437,left
32963,0.0237,0.0360,0.4183,9.27,-1.30,30.89,0.4205,32.2719,left
32983,0.0228,0.0422,0.4131,9.40,-3.95,35.05,0.4159,36.5079,left
33003,0.0247,0.0475,0.4130,7.85,-6.75,39.27,0.4164,40.6082,left
33023,0.0482,0.0261,0.4121,8.14,-4.53,42.27,0.4157,43.2890,left
33043,0.0618,0.0286,0.4019,9.22,4.09,46.00,0.4076,47.0933,left
33063,0.0400,0.0326,0.4106,9.33,9.59,50.53,0.4139,52.2749,left
33083,0.0298,0.0283,0.4205,9.25,7.51,55.08,0.4225,56.3583,left
33103,0.0283,0.0275,0.4275,10.23,2.41,58.92,0.4293,59.8461,left
33123,0.0474,0.0203,0.4255,11.22,-3.05,62.95,0.4286,64.0118,left
33143,0.0636,0.0175,0.4164,12.26,-2.00,66.23,0.4216,67.3838,left
33163,0.0693,0.0149,0.4100,12.20,0.27,68.81,0.4161,69.8826,left
33183,0.0695,0.0142,0.4133,13.01,2.93,69.98,0.4194,71.2436,left
33203,0.0759,0.0120,0.4148,13.01,5.82,69.73,0.4219,71.1663,left
33223,0.0657,0.0209,0.4149,12.46,5.16,70.47,0.4206,71.7518,left
33243,0.0673,0.0222,0.4142,11.88,3.37,70.81,0.4202,71.8777,left
33263,0.0737,0.0193,0.4048,10.93,3.27,70.49,0.4119,71.4059,left
33283,0.0916,0.0228,0.4047,10.85,6.40,69.74,0.4155,70.8695,left
33303,0.0988,0.0201,0.4104,10.24,12.41,68.92,0.4226,70.7702,left
33323,0.1028,0.0260,0.4100,10.15,17.57,67.60,0.4235,70.5836,left
33343,0.1071,0.0239,0.4077,10.21,23.22,64.87,0.4222,69.6541,left
33363,0.0936,0.0332,0.4062,9.63,26.52,63.30,0.4182,69.3013,left
33383,0.0709,0.0305,0.4141,7.18,24.06,61.97,0.4212,66.8628,left
33403,0.0798,0.0231,0.4211,6.60,15.63,58.20,0.4293,60.6215,left
33423,0.0905,0.0347,0.4150,5.10,11.10,52.56,0.4262,53.9654,left
33443,0.0780,0.0381,0.4130,4.47,10.00,49.69,0.4220,50.8878,left
33463,0.0856,0.0383,0.4163,6.63,8.23,49.07,0.4267,50.1932,left
33483,0.0895,0.0505,0.4049,5.65,7.44,45.19,0.4177,46.1454,left
33503,0.0913,0.0432,0.4087,4.35,10.20,41.80,0.4210,43.2471,left
33523,0.0850,0.0422,0.4167,4.82,11.10,38.41,0.4274,40.2736,left
33543,0.0676,0.0588,0.4240,4.55,8.52,35.85,0.4333,37.1255,left
33563,0.0780,0.0500,0.4238,3.50,0.85,31.56,0.4338,31.7618,left
33583,0.0944,0.0652,0.4075,0.81,-1.30,22.17,0.4233,22.2206,left
33603,0.0804,0.0547,0.4033,2.55,1.91,23.31,0.4149,23.5295,left
33623,0.0903,0.0486,0.4130,8.52,-1.36,28.05,0.4255,29.3426,left
33643,0.1249,0.0516,0.4009,6.61,-2.37,22.31,0.4230,23.3844,left
33663,0.1106,0.0565,0.3948,-0.55,-4.24,10.49,0.4139,11.3281,left
33683,0.1425,0.0295,0.4138,-1.16,-8.47,0.20,0.4386,8.5547,left
33703,0.1432,0.0347,0.4069,1.40,-2.64,-7.01,0.4327,7.6194,left
33723,0.1118,0.0476,0.4070,1.28,1.39,-10.41,0.4247,10.5825,left
33743,0.0840,0.0420,0.4097,0.14,0.38,-13.73,0.4203,13.7312,left
33763,0.0682,0.0474,0.4073,-0.24,-7.82,-15.22,0.4157,17.1129,left
33783,0.0898,0.0531,0.4100,0.81,-13.27,-17.18,0.4231,21.7180,left
33803,0.0999,0.0521,0.4193,0.24,-10.85,-18.02,0.4342,21.0343,left
33823,0.0947,0.0470,0.4186,0.60,-11.54,-19.18,0.4317,22.3892,left
33843,0.1138,0.0455,0.4137,1.59,-13.16,-24.50,0.4315,27.8595,left
33863,0.1119,0.0457,0.4194,1.77,-11.01,-29.69,0.4365,31.7187,left
33883,0.1146,0.0419,0.4182,2.31,-9.94,-35.33,0.4357,36.7720,left
33903,0.1224,0.0405,0.4094,1.66,-9.51,-41.79,0.4293,42.8874,left
33923,0.1158,0.0431,0.4187,0.85,-10.09,-47.08,0.4366,48.1609,left
33943,0.1078,0.0416,0.4197,0.56,-12.81,-52.02,0.4353,53.5722,left
33963,0.1188,0.0435,0.4111,-0.43,-16.24,-57.31,0.4301,59.5721,left
33983,0.1334,0.0386,0.4015,-2.05,-15.36,-63.85,0.4248,65.7005,left
34003,0.1200,0.0374,0.4028,-4.31,-12.82,-69.59,0.4220,70.8905,left
34023,0.1266,0.0302,0.4071,-4.85,-12.14,-75.76,0.4274,76.8753,left
34043,0.1178,0.0300,0.4061,-7.05,-11.85,-81.54,0.4239,82.6995,left
34063,0.1228,0.0201,0.4099,-8.73,-10.55,-87.60,0.4284,88.6671,left
34083,0.1174,0.0154,0.4047,-9.91,-6.47,-93.71,0.4216,94.4544,left
34103,0.0770,0.0205,0.4189,-12.61,-8.05,-96.35,0.4265,97.5054,left
34123,0.0685,0.0083,0.4202,-13.82,-18.34,-99.76,0.4258,102.3636,left
34143,0.0782,0.0052,0.4182,-14.82,-26.40,-103.28,0.4255,107.6282,left
34163,0.0709,0.0109,0.4171,-16.66,-27.33,-105.59,0.4232,110.3316,left
34183,0.0394,0.0132,0.4308,-17.05,-28.34,-102.60,0.4328,107.7941,left
34203,0.0288,0.0167,0.4351,-15.01,-33.28,-98.34,0.4363,104.8947,left
34223,0.0537,0.0199,0.4243,-11.59,-35.02,-95.45,0.4282,102.3311,left
34243,0.0824,0.0198,0.4120,-9.01,-26.29,-92.76,0.4206,96.8367,left
34263,0.0275,0.0352,0.4357,-6.52,-9.36,-83.31,0.4379,84.0901,left
34283,-0.0227,0.0376,0.4629,-1.86,-14.15,-70.11,0.4650,71.5454,left
34303,-0.0084,0.0334,0.4500,4.95,-23.30,-60.24,0.4513,64.7814,left
34323,0.0161,0.0482,0.4308,9.66,-23.82,-52.37,0.4338,58.3342,left
34343,0.0255,0.0522,0.4341,12.46,-17.13,-43.97,0.4380,48.8052,left
34363,0.0309,0.0544,0.4314,13.79,-11.91,-36.12,0.4359,40.4559,left
34383,0.0316,0.0552,0.4218,14.49,-9.92,-31.25,0.4265,35.8480,left
34403,0.0288,0.0607,0.4197,15.27,-11.15,-27.50,0.4250,33.3667,left
34423,0.0383,0.0632,0.4082,14.93,-10.93,-23.95,0.4148,30.2695,left
34443,0.0465,0.0673,0.4038,13.45,-8.02,-20.08,0.4120,25.4601,left
34463,0.0441,0.0679,0.4109,12.17,-7.05,-17.05,0.4188,22.1050,left
34483,0.0540,0.0737,0.4008,12.00,-7.24,-14.75,0.4110,20.3439,left
34503,0.0515,0.0856,0.3876,10.12,-4.58,-11.21,0.4002,15.7801,left
34523,0.0520,0.0867,0.3903,8.26,-3.31,-7.95,0.4031,11.9359,left
34543,0.0516,0.0874,0.3879,6.29,-2.49,-5.18,0.4010,8.5173,left
34563,0.0573,0.0870,0.3870,5.37,-2.81,-2.08,0.4007,6.4096,left
34583,0.0793,0.0858,0.3855,4.95,-1.11,0.49,0.4028,5.0940,left
34603,0.0931,0.0815,0.3878,3.91,3.54,2.44,0.4071,5.8128,left
34623,0.0901,0.0790,0.3904,2.82,6.11,4.12,0.4084,7.8907,left
34643,0.0958,0.0741,0.3972,2.73,6.58,4.44,0.4153,8.3967,left
34663,0.0901,0.0734,0.4043,2.69,5.76,4.26,0.4207,7.6480,left
34683,0.0833,0.0791,0.4008,2.05,1.47,3.98,0.4169,4.7129,left
34703,0.0931,0.0798,0.4014,1.01,-2.92,3.66,0.4197,4.7900,left
34723,0.1013,0.0831,0.3949,-0.08,-4.00,2.69,0.4161,4.8193,left
34743,0.1075,0.0837,0.3907,-1.22,-2.99,1.60,0.4138,3.6077,left
34763,0.1086,0.0844,0.3937,-1.91,0.05,0.98,0.4170,2.1445,left
34783,0.1007,0.0830,0.3961,-2.50,2.27,0.47,0.4171,3.4158,left
34803,0.1013,0.0753,0.4077,-1.68,1.79,0.08,0.4268,2.4529,left
34823,0.1079,0.0725,0.4062,-0.82,2.53,-0.84,0.4265,2.7942,left
34843,0.0991,0.0765,0.4106,-0.82,4.46,-1.19,0.4293,4.6874,right
34863,0.0791,0.0784,0.4159,-0.43,2.11,-1.40,0.4305,2.5680,right
34883,0.0753,0.0779,0.4153,0.21,-3.16,-1.76,0.4292,3.6216,right
34903,0.0857,0.0829,0.4114,0.27,-6.05,-2.09,0.4283,6.4033,right
34923,0.0944,0.0831,0.4019,-0.26,-4.92,-1.82,0.4211,5.2474,right
34943,0.0900,0.0782,0.4105,-0.32,-3.28,-1.21,0.4275,3.5117,right
34963,0.0886,0.0764,0.4059,0.37,-2.99,-1.31,0.4224,3.2882,right
34983,0.0964,0.0751,0.4014,0.76,-1.45,-1.80,0.4196,2.4355,right
35003,0.0891,0.0762,0.4084,0.89,1.24,-1.53,0.4249,2.1551,right
35023,0.0812,0.0724,0.4098,1.25,0.76,-1.10,0.4240,1.8326,right
35043,0.0804,0.0780,0.4095,1.40,-1.21,-1.24,0.4246,2.2264,right
35063,0.0813,0.0762,0.4052,1.10,-2.27,-1.51,0.4202,2.9441,right
35083,0.0769,0.0797,0.4139,0.61,-4.27,-1.13,0.4285,4.4636,right
35103,0.0870,0.0767,0.4104,0.95,-4.56,-1.08,0.4265,4.7864,right
35123,0.0862,0.0800,0.4011,0.61,-3.01,-1.07,0.4180,3.2498,right
35143,0.0830,0.0771,0.4060,0.46,-1.97,0.05,0.4215,2.0225,right
35163,0.0825,0.0759,0.4050,0.35,-0.96,0.76,0.4203,1.2772,right
35183,0.0795,0.0792,0.4099,0.63,0.15,1.18,0.4250,1.3406,right
35203,0.0826,0.0757,0.4059,0.63,0.18,1.97,0.4211,2.0747,right
35223,0.0819,0.0785,0.4033,0.14,-0.78,2.26,0.4190,2.3939,right
35243,0.0894,0.0756,0.4102,0.34,-0.85,1.60,0.4265,1.8476,right
35263,0.0881,0.0747,0.4065,0.23,-0.43,1.40,0.4226,1.4859,right
35283,0.0869,0.0790,0.4070,0.44,-0.46,1.01,0.4236,1.1921,right
35303,0.0929,0.0846,0.4104,0.53,-1.73,-0.02,0.4292,1.8061,right
35323,0.1006,0.0864,0.3983,0.37,-0.89,-1.39,0.4198,1.6878,right
35343,0.1176,0.0776,0.4094,1.13,2.23,-4.20,0.4330,4.8859,right
35363,0.1237,0.0856,0.4072,1.21,4.70,-7.57,0.4341,8.9950,right
35383,0.1233,0.0790,0.4158,1.91,7.21,-11.65,0.4408,13.8299,right
35403,0.1180,0.0796,0.4265,2.47,6.89,-16.38,0.4496,17.9412,right
35423,0.1122,0.0775,0.4249,2.52,1.57,-21.31,0.4463,21.5189,right
35443,0.1296,0.0791,0.4204,2.69,-6.67,-28.47,0.4470,29.3677,right
35463,0.1472,0.0800,0.4220,1.77,-10.31,-36.84,0.4540,38.2949,right
35483,0.1562,0.0734,0.4187,0.78,-13.40,-45.34,0.4529,47.2898,right
35503,0.1694,0.0682,0.4094,-0.29,-14.08,-55.63,0.4483,57.3875,right
35523,0.1760,0.0656,0.3962,-1.89,-12.50,-65.76,0.4385,66.9608,right
35543,0.1947,0.0577,0.3933,-3.51,-4.73,-76.58,0.4426,76.8066,right
35563,0.1748,0.0518,0.3993,-4.21,3.34,-86.87,0.4389,87.0366,right
35583,0.1481,0.0519,0.4048,-5.22,5.83,-95.31,0.4341,95.6339,right
35603,0.1110,0.0542,0.4147,-7.30,-2.29,-102.98,0.4327,103.2607,right
35623,0.0920,0.0510,0.4108,-8.87,-11.60,-111.11,0.4240,112.0703,right
35643,0.0901,0.0544,0.4164,-9.95,-16.35,-116.98,0.4295,118.5331,right
35663,0.0833,0.0586,0.4058,-10.49,-18.61,-120.21,0.4183,122.0971,right
35683,0.0651,0.0548,0.4171,-9.10,-16.03,-122.44,0.4257,123.8225,right
35703,0.0616,0.0564,0.4172,-7.50,-13.30,-122.32,0.4255,123.2694,right
35723,0.0448,0.0519,0.4226,-6.12,-10.32,-119.85,0.4281,120.4466,right
35743,0.0260,0.0529,0.4164,-4.81,-12.02,-118.50,0.4205,119.2084,right
35763,0.0031,0.0594,0.4261,-3.73,-12.47,-115.69,0.4303,116.4247,right
35783,0.0002,0.0596,0.4281,-2.03,-14.93,-109.77,0.4322,110.8004,right
35803,0.0280,0.0480,0.4128,-0.99,-13.28,-105.54,0.4166,106.3791,right
35823,0.0123,0.0482,0.4094,-1.48,-7.19,-101.57,0.4124,101.8375,right
35843,-0.0026,0.0520,0.4224,0.50,-7.07,-94.00,0.4256,94.2668,right
35863,0.0092,0.0496,0.4116,2.03,-8.31,-88.93,0.4147,89.3414,right
35883,0.0100,0.0513,0.4116,1.86,-9.50,-86.37,0.4149,86.9069,right
35903,0.0175,0.0520,0.4139,2.96,-4.84,-79.69,0.4176,79.8964,right
35923,0.0389,0.0441,0.4033,5.65,2.61,-72.67,0.4076,72.9377,right
35943,0.0078,0.0502,0.4017,7.36,5.71,-67.77,0.4049,68.4081,right
35963,-0.0052,0.0594,0.3970,7.77,1.50,-63.45,0.4014,63.9420,right
35983,0.0070,0.0653,0.3929,6.17,-1.40,-59.60,0.3984,59.9378,right
36003,-0.0331,0.0594,0.3920,7.76,14.90,-59.85,0.3978,62.1602,right
36023,-0.0552,0.0695,0.4092,9.71,4.08,-48.41,0.4187,49.5443,right
36043,-0.0275,0.0858,0.3743,6.23,4.67,-39.13,0.3850,39.8969,right
36063,-0.0659,0.0881,0.3933,2.00,1.65,-28.46,0.4084,28.5758,right
36083,-0.0620,0.0872,0.3931,2.41,-2.66,-17.44,0.4074,17.8005,right
36103,-0.0555,0.0895,0.3904,0.98,-7.44,-7.88,0.4043,10.8764,right
36123,-0.0400,0.0858,0.3961,0.23,-9.13,1.04,0.4073,9.1915,right
36143,-0.0126,0.0803,0.3972,0.11,-8.75,8.73,0.4055,12.3613,right
36163,0.0056,0.0846,0.3948,0.53,-5.53,15.48,0.4038,16.4465,right
36183,0.0072,0.0865,0.4010,0.15,-4.24,20.46,0.4103,20.8942,right
36203,0.0073,0.0862,0.4108,0.61,-3.77,24.52,0.4198,24.8149,right
36223,0.0000,0.0847,0.4133,1.27,-7.83,28.63,0.4219,29.7051,right
36243,0.0026,0.0846,0.4113,1.74,-15.95,30.90,0.4199,34.8199,right
36263,0.0275,0.0785,0.4104,2.15,-20.23,29.42,0.4187,35.7683,right
36283,0.0333,0.0862,0.4026,2.03,-20.98,27.92,0.4131,34.9842,right
36303,0.0175,0.0929,0.3937,1.37,-23.36,28.78,0.4049,37.0908,right
36323,0.0304,0.0853,0.3890,3.11,-18.76,31.34,0.3994,36.6631,right
36343,0.0353,0.0913,0.3912,4.85,-9.22,34.11,0.4033,35.6635,right
36363,0.0237,0.0891,0.4023,5.42,-0.23,42.55,0.4128,42.8940,right
36383,0.0325,0.0776,0.3911,6.64,8.14,51.18,0.4001,52.2423,right
36403,-0.0120,0.0792,0.3943,6.20,8.27,55.62,0.4023,56.5711,right
36423,-0.0464,0.0919,0.4180,4.35,-10.27,58.56,0.4305,59.6184,right
36443,0.0004,0.0852,0.4183,1.19,-26.29,62.58,0.4269,67.8886,right
36463,0.0710,0.0618,0.3958,2.00,-23.10,66.46,0.4068,70.3864,right
36483,0.1011,0.0708,0.3784,5.02,-1.54,67.59,0.3980,67.7917,right
36503,0.0621,0.0913,0.3888,5.47,21.88,73.63,0.4042,77.0092,right
36523,-0.0074,0.0919,0.4037,3.62,23.19,84.50,0.4141,87.7029,right
36543,-0.0057,0.0623,0.4146,4.50,9.13,87.47,0.4192,88.0561,right
36563,0.0554,0.0625,0.4044,5.36,2.27,83.86,0.4130,84.0644,right
36583,0.0835,0.0814,0.3866,2.29,15.34,85.07,0.4038,86.4717,right
36603,0.0829,0.0706,0.3860,1.07,34.09,90.90,0.4010,97.0893,right
36623,0.0809,0.0557,0.4020,2.69,46.99,89.82,0.4138,101.4030,right
36643,0.0326,0.0780,0.4130,0.44,42.84,87.07,0.4215,97.0381,right
36663,0.0134,0.0841,0.4243,-3.88,29.02,86.79,0.4328,91.5999,right
36683,0.0359,0.0664,0.4263,-4.89,17.69,85.68,0.4329,87.6238,right
36703,0.0646,0.0681,0.4120,-3.86,16.24,80.96,0.4225,82.6657,right
36723,0.0581,0.0823,0.4097,-5.44,21.57,78.67,0.4219,81.7567,right
36743,0.0604,0.0765,0.4160,-6.44,26.81,79.83,0.4273,84.4594,right
36763,0.0444,0.0692,0.4131,-6.66,32.82,81.11,0.4212,87.7571,right
36783,0.0154,0.0638,0.4420,-3.69,27.94,82.49,0.4469,87.1699,right
36803,0.0071,0.0718,0.4270,-1.80,19.21,83.51,0.4331,85.7105,right
36823,0.0155,0.0743,0.4199,-1.80,14.76,85.77,0.4267,87.0509,right
36843,0.0284,0.0645,0.4143,-2.61,12.31,85.98,0.4203,86.9000,right
36863,0.0673,0.0475,0.4330,-0.03,17.95,82.96,0.4407,84.8824,right
36883,0.0947,0.0437,0.4146,3.08,31.19,80.90,0.4275,86.7601,right
36903,0.0732,0.0571,0.4084,3.80,44.15,80.47,0.4189,91.8687,right
36923,0.0061,0.0660,0.4187,1.73,41.95,80.70,0.4239,90.9725,right
36943,-0.0356,0.0623,0.4497,1.08,20.27,80.50,0.4554,83.0247,right
36963,0.0190,0.0490,0.4333,1.33,0.17,75.98,0.4365,75.9965,right
36983,0.0809,0.0448,0.4232,1.51,2.08,70.98,0.4332,71.0235,right
37003,0.1110,0.0413,0.4172,2.52,13.37,66.96,0.4337,68.3308,right
37023,0.0847,0.0577,0.4104,2.76,26.18,64.40,0.4230,69.5713,right
37043,0.0779,0.0475,0.4209,4.58,32.76,61.25,0.4307,69.6147,right
37063,0.0740,0.0587,0.4167,5.36,31.69,55.27,0.4273,63.9353,right
37083,0.0406,0.0756,0.4321,3.79,23.53,52.60,0.4406,57.7418,right
37103,0.0549,0.0593,0.4269,3.86,10.17,48.50,0.4345,49.7084,right
37123,0.0707,0.0675,0.4128,4.03,5.15,41.34,0.4243,41.8569,right
37143,0.0653,0.0721,0.4093,3.02,1.66,35.42,0.4207,35.5875,right
37163,0.0679,0.0662,0.4148,3.92,-2.06,30.55,0.4255,30.8694,right
37183,0.0803,0.0740,0.4056,5.42,-3.76,26.23,0.4201,27.0452,right
37203,0.0789,0.0740,0.4073,5.54,-0.85,20.61,0.4215,21.3599,right
37223,0.0667,0.0822,0.4056,6.78,2.52,17.31,0.4192,18.7626,right
37243,0.0474,0.0901,0.4146,6.50,1.53,14.44,0.4269,15.9130,right
37263,0.0398,0.0908,0.4094,6.24,-5.80,10.29,0.4213,13.3617,right
37283,0.0398,0.0931,0.4073,5.51,-12.84,6.41,0.4198,15.3737,right
37303,0.0547,0.0900,0.4072,4.34,-15.97,2.29,0.4206,16.7053,right
37323,0.0541,0.0928,0.3997,3.47,-16.02,-1.10,0.4138,16.4228,right
37343,0.0616,0.0939,0.3956,2.58,-13.31,-4.73,0.4113,14.3629,right
37363,0.0548,0.0966,0.3961,1.30,-8.98,-7.68,0.4114,11.8847,right
37383,0.0397,0.0970,0.3990,0.47,-7.54,-8.78,0.4126,11.5832,right
37403,0.0349,0.0900,0.4060,0.14,-9.50,-9.44,0.4173,13.3872,right
37423,0.0305,0.0946,0.4005,0.05,-10.32,-9.69,0.4127,14.1599,right
37443,0.0266,0.0988,0.4025,-0.41,-9.89,-8.66,0.4153,13.1521,right
37463,0.0256,0.0928,0.4097,-0.92,-9.91,-7.47,0.4208,12.4399,right
37483,0.0262,0.0931,0.4152,-1.10,-10.63,-6.27,0.4263,12.3892,right
37503,0.0369,0.0876,0.4087,-0.09,-11.37,-5.37,0.4196,12.5801,right
37523,0.0380,0.0868,0.4041,0.24,-8.60,-4.61,0.4150,9.7570,right
37543,0.0411,0.0853,0.4061,0.20,-5.68,-3.18,0.4170,6.5099,right
37563,0.0378,0.0863,0.4070,0.11,-3.92,-2.72,0.4177,4.7741,right
37583,0.0333,0.0846,0.4056,-0.09,-3.56,-2.85,0.4157,4.5622,right
37603,0.0383,0.0823,0.4095,-0.61,-4.09,-3.05,0.4195,5.1418,right
37623,0.0365,0.0851,0.4061,-1.71,-5.07,-3.57,0.4165,6.4326,stop
37643,0.0345,0.0872,0.4036,-2.34,-7.79,-3.25,0.4143,8.7554,stop
37663,0.0486,0.0818,0.3995,-2.26,-7.21,-3.79,0.4107,8.4480,stop
37683,0.0526,0.0869,0.4014,-2.43,-3.77,-3.31,0.4140,5.5757,stop
37703,0.0447,0.0872,0.4047,-3.01,-1.44,-2.66,0.4163,4.2617,stop
37723,0.0437,0.0850,0.4154,-2.31,-1.02,-2.90,0.4263,3.8439,stop
37743,0.0447,0.0857,0.4153,-1.66,-1.69,-3.19,0.4264,3.9778,stop
37763,0.0433,0.0868,0.4075,-1.83,-1.98,-2.90,0.4189,3.9636,stop
37783,0.0364,0.0806,0.4139,-2.14,-3.27,-2.93,0.4233,4.8822,stop
37803,0.0439,0.0824,0.4104,-1.19,-5.45,-3.48,0.4209,6.5758,stop
37823,0.0480,0.0861,0.4131,-0.79,-5.39,-3.79,0.4247,6.6341,stop
37843,0.0410,0.0847,0.4125,-0.95,-4.98,-3.45,0.4231,6.1297,stop
37863,0.0416,0.0857,0.4126,0.14,-5.37,-3.07,0.4235,6.1900,stop
37883,0.0403,0.0853,0.4121,0.43,-4.84,-2.08,0.4228,5.2836,stop
37903,0.0344,0.0868,0.4133,0.56,-5.13,-0.76,0.4237,5.2169,stop
37923,0.0311,0.0885,0.4117,0.67,-7.76,-0.15,0.4223,7.7863,stop
37943,0.0479,0.0859,0.4053,0.31,-10.05,-0.58,0.4170,10.0672,stop
37963,0.0603,0.0826,0.4045,-0.06,-7.42,-1.13,0.4173,7.5056,stop
37983,0.0659,0.0811,0.4131,0.41,-3.18,-1.34,0.4261,3.4726,stop
38003,0.0548,0.0825,0.4113,1.05,0.44,-1.56,0.4230,1.9315,stop
38023,0.0433,0.0829,0.4155,1.98,1.24,-1.07,0.4259,2.5711,stop
38043,0.0441,0.0868,0.4149,2.21,1.57,-0.95,0.4262,2.8757,stop
38063,0.0323,0.0895,0.4150,3.22,-0.47,-0.31,0.4258,3.2702,stop
38083,0.0332,0.0941,0.4091,2.58,-5.53,0.34,0.4211,6.1086,stop
38103,0.0516,0.0951,0.3972,2.24,-8.64,-0.08,0.4117,8.9282,stop
38123,0.0616,0.0925,0.3884,0.47,-6.69,-0.70,0.4040,6.7404,stop
38143,0.0603,0.0935,0.3839,-1.71,-5.28,-1.48,0.3997,5.7464,stop
38163,0.0698,0.0925,0.3732,-5.88,-1.91,-2.84,0.3908,6.8011,stop
38183,0.0516,0.0873,0.3711,-9.69,2.32,-3.73,0.3847,10.6418,stop
38203,0.0232,0.0939,0.3531,-13.33,-0.81,-3.16,0.3661,13.7217,stop
38223,-0.0067,0.1069,0.3330,-20.50,-10.02,-0.75,0.3498,22.8314,stop
38243,-0.0377,0.1169,0.3041,-31.33,-26.47,2.73,0.3280,41.1067,stop
38263,-0.0248,0.1101,0.2990,-43.21,-44.03,6.64,0.3195,62.0448,stop
38283,0.0776,0.0616,0.3053,-51.40,-42.05,7.54,0.3210,66.8368,stop
38303,0.1799,0.0236,0.2925,-56.69,-12.15,4.95,0.3442,58.1857,stop
38323,0.1886,0.0094,0.2802,-63.98,32.12,2.72,0.3378,71.6468,stop
38343,0.1179,-0.0110,0.2924,-68.11,63.27,3.02,0.3154,93.0076,stop
38363,0.0011,0.0051,0.3191,-78.00,64.53,3.05,0.3191,101.2818,stop
38383,-0.1222,0.0020,0.3663,-92.99,22.21,8.17,0.3862,95.9570,stop
38403,-0.1042,-0.0266,0.3439,-105.08,-33.44,11.02,0.3603,110.8244,stop
38423,0.0197,-0.0574,0.3182,-115.86,-60.00,9.16,0.3240,130.7978,stop
38443,0.1880,-0.1226,0.3436,-121.08,-41.50,5.21,0.4104,128.1030,stop
38463,0.2687,-0.1793,0.3251,-122.20,11.98,-0.66,0.4583,122.7865,stop
38483,0.1929,-0.1809,0.3285,-122.08,62.24,-2.35,0.4217,137.0493,stop
38503,0.0135,-0.1544,0.3458,-125.13,70.29,0.70,0.3790,143.5223,stop
38523,-0.0564,-0.1578,0.3325,-133.56,42.52,3.44,0.3724,140.2042,stop
38543,-0.0452,-0.2020,0.3373,-139.56,18.84,4.31,0.3957,140.8889,stop
38563,-0.0192,-0.2189,0.2942,-149.18,4.05,2.47,0.3672,149.2509,stop
38583,-0.0269,-0.2191,0.2606,-164.27,-4.98,4.93,0.3415,164.4241,stop
38603,0.0034,-0.2699,0.2720,-174.49,-11.53,9.74,0.3832,175.1399,stop
38623,0.0786,-0.3475,0.2794,-176.47,9.63,10.61,0.4528,177.0543,stop
38643,0.0024,-0.3850,0.3303,-172.58,24.23,17.60,0.5073,175.1594,stop
38663,-0.0612,-0.3895,0.3279,-162.99,13.44,31.22,0.5128,166.4986,stop
38683,-0.0215,-0.4010,0.3005,-158.99,1.11,30.98,0.5016,161.9858,stop
38703,0.0151,-0.4447,0.2749,-158.40,2.18,29.22,0.5230,161.0846,stop
38723,0.0035,-0.4689,0.2661,-160.79,10.56,29.86,0.5391,163.8843,stop
38743,-0.0149,-0.4928,0.2542,-149.24,6.89,33.74,0.5547,153.1581,stop
38763,-0.0107,-0.4830,0.2167,-142.70,1.53,31.68,0.5295,146.1843,stop
38783,-0.0153,-0.4963,0.2108,-144.26,-5.15,30.24,0.5395,147.4856,stop
38803,0.0276,-0.5400,0.2017,-142.76,-5.25,25.60,0.5771,145.1360,stop
38823,0.0564,-0.5867,0.2098,-134.44,8.61,19.05,0.6256,136.0589,stop
38843,0.0327,-0.6154,0.2241,-117.33,19.76,15.92,0.6557,120.0407,stop
38863,0.0042,-0.6144,0.2281,-94.29,22.02,12.95,0.6554,97.6878,stop
38883,-0.0071,-0.5824,0.2068,-73.89,16.46,5.45,0.6181,75.8997,stop
38903,-0.0137,-0.5593,0.1781,-61.92,18.44,1.50,0.5872,64.6291,stop
38923,-0.0710,-0.5592,0.1912,-50.96,15.65,-0.21,0.5952,53.3108,stop
38943,-0.0924,-0.5593,0.1981,-35.04,-1.13,-3.24,0.6005,35.2055,stop
38963,-0.0781,-0.5544,0.1940,-21.04,-17.33,-6.53,0.5926,28.0280,stop
38983,-0.0453,-0.5486,0.1865,-9.57,-25.71,-9.34,0.5812,28.9816,stop
39003,-0.0327,-0.5481,0.1912,2.66,-26.56,-12.21,0.5814,29.3586,stop
39023,-0.0355,-0.5396,0.1890,15.54,-28.43,-12.92,0.5728,34.8783,stop
39043,-0.0354,-0.5201,0.1703,26.21,-31.05,-14.03,0.5485,42.9922,stop
39063,-0.0355,-0.5131,0.1567,33.92,-29.19,-13.91,0.5376,46.8654,stop
39083,-0.0433,-0.5076,0.1659,42.09,-30.76,-10.70,0.5357,53.2224,stop
39103,-0.0228,-0.5217,0.1711,49.83,-32.26,-9.65,0.5496,60.1416,stop
39123,-0.0134,-0.5223,0.1719,57.98,-34.76,-10.24,0.5501,68.3788,stop
39143,-0.0120,-0.5135,0.1677,65.65,-34.63,-9.95,0.5404,74.8853,stop
39163,-0.0123,-0.5182,0.1796,72.84,-34.64,-9.82,0.5486,81.2527,stop
39183,-0.0117,-0.5255,0.1919,81.05,-40.27,-12.15,0.5596,91.3204,stop
39203,-0.0214,-0.5200,0.2217,90.52,-47.10,-13.48,0.5657,102.9261,stop
39223,-0.0161,-0.5211,0.2260,99.01,-57.11,-13.39,0.5682,115.0819,stop
39243,0.0352,-0.5200,0.2155,105.22,-60.40,-17.76,0.5640,122.6156,stop
39263,0.0619,-0.5195,0.2266,113.22,-51.25,-21.89,0.5702,126.1949,stop
39283,0.0686,-0.5057,0.2354,123.60,-38.81,-22.43,0.5620,131.4795,stop
39303,0.0535,-0.4906,0.2500,132.67,-31.08,-21.86,0.5532,138.0072,stop
39323,0.0258,-0.4540,0.2616,136.69,-32.55,-22.56,0.5246,142.3095,stop
39343,0.0059,-0.4205,0.2634,135.66,-44.66,-22.93,0.4963,144.6541,stop
39363,0.0139,-0.4037,0.2755,132.53,-61.33,-23.80,0.4889,147.9629,stop
39383,0.0587,-0.3914,0.2817,130.29,-66.72,-25.92,0.4858,148.6566,stop
39403,0.0822,-0.3781,0.2729,127.50,-66.46,-28.79,0.4735,146.6323,stop
39423,0.1121,-0.3650,0.2748,126.66,-59.63,-31.45,0.4704,143.4823,stop
39443,0.1064,-0.3403,0.2889,125.40,-52.23,-32.27,0.4590,139.6275,stop
39463,0.1348,-0.3363,0.2919,123.88,-48.03,-32.20,0.4652,136.7092,stop
39483,0.1652,-0.3347,0.2961,123.45,-40.34,-33.69,0.4765,134.1727,stop
39503,0.1686,-0.3282,0.3392,126.73,-31.82,-35.07,0.5012,135.2898,stop
39523,0.1660,-0.3107,0.3646,127.15,-29.57,-36.53,0.5070,135.5550,stop
39543,0.1589,-0.2845,0.3574,128.72,-31.77,-39.56,0.4837,138.3560,stop
39563,0.1428,-0.2312,0.3313,129.08,-34.47,-43.45,0.4285,140.4956,stop
39583,0.1459,-0.1984,0.3552,131.56,-32.23,-46.00,0.4322,143.0455,stop
39603,0.1711,-0.1489,0.3503,124.44,-31.97,-44.73,0.4174,136.0480,stop
39623,0.2094,-0.1432,0.3484,121.54,-22.40,-46.06,0.4309,131.8928,stop
39643,0.2438,-0.1222,0.3075,118.18,-3.94,-46.24,0.4110,126.9698,stop
39663,0.1942,-0.0801,0.3163,117.08,16.44,-43.02,0.3797,125.8173,stop
39683,0.1282,-0.0475,0.3517,113.89,13.60,-39.51,0.3773,121.3171,stop
39703,0.1221,-0.0229,0.3369,104.27,-3.44,-43.27,0.3591,112.9473,stop
39723,0.1711,-0.0237,0.3313,94.69,-8.93,-52.40,0.3736,108.5856,stop
39743,0.2134,-0.0073,0.2874,83.66,-2.76,-61.21,0.3580,103.6991,stop
39763,0.1833,0.0310,0.2739,73.47,12.21,-63.66,0.3311,97.9770,stop
39783,0.1534,0.0533,0.2886,64.99,20.98,-64.41,0.3312,93.8775,stop
39803,0.1360,0.0631,0.2971,57.08,24.21,-61.08,0.3328,87.0410,stop
39823,0.1427,0.0708,0.3055,52.15,28.85,-57.04,0.3446,82.4977,stop
39843,0.1356,0.0967,0.3171,48.35,37.97,-50.81,0.3582,79.7564,stop
39863,0.1029,0.1089,0.3292,42.69,41.04,-42.32,0.3617,72.7829,stop
39883,0.0942,0.1066,0.3328,40.21,40.85,-37.02,0.3619,68.2420,stop
39903,0.1090,0.1095,0.3474,36.92,42.96,-32.26,0.3802,65.1858,stop
39923,0.1425,0.1055,0.3220,34.46,54.58,-31.13,0.3676,71.6618,stop
39943,0.0776,0.1305,0.3135,31.65,68.12,-27.51,0.3483,79.9947,stop
39963,-0.0300,0.1628,0.3540,24.95,54.43,-21.65,0.3908,63.6660,stop
39983,-0.0402,0.1609,0.3898,18.66,16.29,-19.45,0.4236,31.4920,stop
40003,0.0132,0.1517,0.3809,12.78,-12.96,-19.79,0.4102,26.8849,stop
40023,0.0662,0.1549,0.3528,7.88,-20.24,-18.05,0.3909,28.2408,stop
40043,0.0880,0.1515,0.3508,3.21,-11.73,-14.64,0.3921,19.0296,stop
40063,0.0776,0.1495,0.3619,2.92,-2.23,-11.57,0.3992,12.1406,stop
40083,0.0654,0.1479,0.3807,4.24,0.58,-8.82,0.4137,9.8092,stop
40103,0.0592,0.1542,0.3917,4.56,-1.31,-5.83,0.4251,7.5216,stop
40123,0.0557,0.1611,0.3738,2.78,-6.34,-3.80,0.4108,7.8940,stop
40143,0.0579,0.1602,0.3796,0.89,-10.95,-2.05,0.4161,11.1712,stop
40163,0.0782,0.1583,0.3698,-1.91,-12.69,-2.00,0.4098,12.9847,stop
40183,0.0905,0.1509,0.3721,-3.16,-8.89,-2.09,0.4116,9.6599,stop
40203,0.1012,0.1510,0.3735,-4.15,-1.88,-2.11,0.4154,5.0210,stop
40223,0.0792,0.1447,0.3907,-4.84,2.20,-0.85,0.4241,5.3839,stop
40243,0.0737,0.1392,0.3960,-4.44,2.06,-0.18,0.4262,4.9010,stop
40263,0.0702,0.1437,0.3964,-3.21,-0.93,0.87,0.4274,3.4502,stop
40283,0.0829,0.1423,0.3910,-2.64,-2.40,2.08,0.4243,4.1271,stop
40303,0.0956,0.1415,0.3871,-3.16,-0.09,2.02,0.4231,3.7493,stop
40323,0.0990,0.1375,0.3970,-1.66,4.37,2.46,0.4316,5.2798,stop
40343,0.0842,0.1438,0.3994,-0.26,5.60,2.52,0.4328,6.1488,stop
40363,0.0712,0.1471,0.4048,-0.53,0.27,2.26,0.4365,2.3381,stop
40383,0.0771,0.1423,0.3939,-1.04,-6.53,1.31,0.4259,6.7453,stop
40403,0.0941,0.1401,0.3923,-1.30,-6.75,0.37,0.4271,6.8815,stop
40423,0.0981,0.1404,0.3911,-0.87,-4.84,-0.55,0.4270,4.9479,stop
40443,0.1023,0.1346,0.3959,0.50,-1.79,-1.02,0.4305,2.1192,stop
40463,0.0986,0.1346,0.3937,1.62,1.79,-1.50,0.4276,2.8369,stop
